participant_id,stepOne_Param,stepOneTwo_Param,stepTwoTwo_Param,rewards_Param,stepOneChoice,stepTwoChoice,reward,rewardProbabilities,isHighProbOne,isHighProbTwo,trial_type,trial_index,time_elapsed,internal_node_id
1,"[1,0]","[2,3]","[3,2]","[true,false,true,false]",1,3,False,"[0.6238995368157885,0.3420548510418073,0.48542298230719505,0.5622754838303844]",False,True,dawsTwoStep,0,5195,0.0-0.0
1,"[0,1]","[2,3]","[3,2]","[false,false,false,false]",0,3,False,"[0.6588762362282843,0.3517841002236941,0.48228550205011117,0.5343501670126529]",False,True,dawsTwoStep,1,10968,0.0-1.0
1,"[1,0]","[0,1]","[2,3]","[true,false,true,true]",1,3,True,"[0.6042058312627805,0.4124017672220717,0.5176933802331362,0.5391578310019538]",True,True,dawsTwoStep,2,16909,0.0-2.0
1,"[1,0]","[0,1]","[3,2]","[true,true,true,false]",1,3,False,"[0.5392731582276542,0.4179977610802485,0.47722500617080693,0.5551258418218846]",True,True,dawsTwoStep,3,20863,0.0-3.0
1,"[0,1]","[0,1]","[2,3]","[true,true,false,false]",0,1,True,"[0.5689986849945254,0.4052911463860304,0.48212383655610846,0.5520460438818927]",True,True,dawsTwoStep,4,26156,0.0-4.0
1,"[1,0]","[0,1]","[2,3]","[true,false,false,false]",0,1,False,"[0.5576857484356043,0.4181678659645171,0.4740105739973605,0.5527174197979823]",True,True,dawsTwoStep,5,31006,0.0-5.0
1,"[0,1]","[1,0]","[2,3]","[true,false,false,true]",1,3,True,"[0.516986695095037,0.404022890449043,0.4454278403225542,0.586469915722004]",True,True,dawsTwoStep,6,35951,0.0-6.0
1,"[0,1]","[1,0]","[1,0]","[true,true,true,false]",1,1,True,"[0.5022397285682854,0.4599655917100887,0.42488508471574193,0.5806456428871439]",True,False,dawsTwoStep,7,41640,0.0-7.0
1,"[0,1]","[3,2]","[2,3]","[false,false,false,true]",0,3,True,"[0.4853322117573912,0.4471100428856377,0.4005110888470974,0.6152164606185394]",False,True,dawsTwoStep,8,48827,0.0-8.0
1,"[1,0]","[3,2]","[3,2]","[true,false,true,true]",1,3,True,"[0.4751104864867217,0.4168992092806137,0.4126539293855058,0.6285537966257522]",False,True,dawsTwoStep,9,53920,0.0-9.0
1,"[0,1]","[0,1]","[2,3]","[true,false,false,false]",1,3,False,"[0.4961411056272094,0.4007126951562187,0.37803843234706663,0.661217042298053]",True,True,dawsTwoStep,10,57460,0.0-10.0
1,"[0,1]","[1,0]","[2,3]","[true,true,false,false]",1,3,False,"[0.4679866833664472,0.4059263676874327,0.40922271544671773,0.6941606743180816]",True,True,dawsTwoStep,11,61599,0.0-11.0
1,"[0,1]","[1,0]","[1,0]","[false,false,false,true]",0,0,False,"[0.4412161038614109,0.4511198373879833,0.3926811528656138,0.6880847309392587]",True,False,dawsTwoStep,12,67365,0.0-12.0
1,"[0,1]","[1,0]","[3,2]","[false,false,false,true]",0,1,False,"[0.4645492777875311,0.4204513239370291,0.4154493400491245,0.7050014264576134]",True,True,dawsTwoStep,13,75211,0.0-13.0
1,"[0,1]","[2,3]","[1,0]","[true,false,true,false]",1,0,True,"[0.4969471628665427,0.4284694015095378,0.41630246137897703,0.7080728943373098]",False,False,dawsTwoStep,14,81421,0.0-14.0
1,"[1,0]","[0,1]","[3,2]","[true,true,true,true]",0,0,True,"[0.43566928828599183,0.4756090089120687,0.4243415524180494,0.7294037771656441]",True,True,dawsTwoStep,15,86094,0.0-15.0
1,"[0,1]","[1,0]","[3,2]","[true,true,false,true]",0,1,True,"[0.4273865311461969,0.4387136149743826,0.4577869750130677,0.740326852770629]",True,True,dawsTwoStep,16,90736,0.0-16.0
1,"[1,0]","[3,2]","[2,3]","[true,true,false,false]",0,3,False,"[0.4249680943846489,0.4612414509453688,0.4253712577614472,0.7345533120697295]",False,True,dawsTwoStep,17,95281,0.0-17.0
1,"[0,1]","[2,3]","[0,1]","[true,true,false,false]",1,0,True,"[0.45926836782027136,0.5147410748623292,0.4691027430346219,0.75]",False,False,dawsTwoStep,18,100635,0.0-18.0
1,"[0,1]","[3,2]","[3,2]","[true,false,true,false]",1,2,True,"[0.4626720771294881,0.5351278519314934,0.509478264232891,0.7226449236370309]",False,True,dawsTwoStep,19,110461,0.0-19.0
1,"[1,0]","[3,2]","[2,3]","[false,true,false,true]",1,2,False,"[0.485050255957146,0.5090545255889054,0.49281099294614816,0.7470130282493562]",False,True,dawsTwoStep,20,114094,0.0-20.0
1,"[0,1]","[0,1]","[1,0]","[false,false,true,true]",0,1,False,"[0.4503281734869903,0.48169287605407346,0.4804261967100009,0.75]",True,False,dawsTwoStep,21,120454,0.0-21.0
1,"[1,0]","[1,0]","[3,2]","[false,false,true,false]",0,1,False,"[0.44257311523507653,0.4926054112545013,0.46370668697158113,0.7103530209725747]",True,True,dawsTwoStep,22,124090,0.0-22.0
1,"[0,1]","[2,3]","[2,3]","[true,false,true,true]",1,3,True,"[0.42407688333124577,0.5044607773718006,0.46372828823582407,0.6641364920428394]",False,True,dawsTwoStep,23,127155,0.0-23.0
1,"[1,0]","[2,3]","[2,3]","[true,true,false,true]",1,3,True,"[0.4336925965396379,0.5495391387957089,0.47411039980588937,0.6598079053588872]",False,True,dawsTwoStep,24,130949,0.0-24.0
1,"[1,0]","[1,0]","[0,1]","[false,false,true,true]",1,0,False,"[0.43745888919319353,0.5363338373456398,0.4583027587823018,0.6554601653675642]",True,False,dawsTwoStep,25,136105,0.0-25.0
1,"[1,0]","[1,0]","[3,2]","[false,true,false,true]",0,0,False,"[0.4187808168349532,0.5575471624363733,0.45543796154002236,0.6434481935205034]",True,True,dawsTwoStep,26,142653,0.0-26.0
1,"[1,0]","[1,0]","[0,1]","[false,true,false,true]",0,1,True,"[0.4010532868257959,0.5250914314741801,0.48747729935650214,0.6616740709060845]",True,False,dawsTwoStep,27,145716,0.0-27.0
1,"[0,1]","[2,3]","[2,3]","[false,true,false,true]",0,2,False,"[0.37535083982992656,0.5393110600221984,0.4752344416755422,0.6457031444104393]",False,True,dawsTwoStep,28,152158,0.0-28.0
1,"[0,1]","[1,0]","[3,2]","[false,true,true,true]",0,1,True,"[0.3916255710457963,0.5404538743386161,0.4482725918196348,0.604638758676178]",True,True,dawsTwoStep,29,155419,0.0-29.0
1,"[1,0]","[1,0]","[2,3]","[false,true,true,true]",0,1,True,"[0.3899586343326102,0.5405116274091777,0.4263799998991161,0.6528874363270535]",True,True,dawsTwoStep,30,158806,0.0-30.0
1,"[0,1]","[2,3]","[0,1]","[true,false,true,true]",0,3,True,"[0.44788494510209376,0.5017226186270419,0.4576217638312113,0.6564350314250118]",False,False,dawsTwoStep,31,163548,0.0-31.0
1,"[0,1]","[0,1]","[0,1]","[false,true,false,true]",1,1,True,"[0.46999905721125085,0.5209220342409393,0.4564357948849841,0.6350623144928478]",True,False,dawsTwoStep,32,168015,0.0-32.0
1,"[1,0]","[1,0]","[0,1]","[false,false,false,true]",0,1,False,"[0.43177500368385985,0.5064654299269469,0.4952135534082014,0.6120952241046426]",True,False,dawsTwoStep,33,172349,0.0-33.0
1,"[0,1]","[2,3]","[2,3]","[true,false,false,false]",1,3,False,"[0.40130289501613825,0.5412203004967856,0.484752926080832,0.6097434475950291]",False,True,dawsTwoStep,34,175560,0.0-34.0
1,"[0,1]","[2,3]","[2,3]","[false,false,true,false]",1,3,False,"[0.39600201349545316,0.5173627857806438,0.5021337050318799,0.6264780507348782]",False,True,dawsTwoStep,35,178644,0.0-35.0
1,"[0,1]","[0,1]","[0,1]","[true,false,false,true]",1,0,True,"[0.43888706908553554,0.5532341824368874,0.5094913698437008,0.6414386423595734]",True,False,dawsTwoStep,36,185143,0.0-36.0
1,"[1,0]","[1,0]","[2,3]","[false,true,false,false]",1,3,False,"[0.3799452208257287,0.5225284857385013,0.47535141247394863,0.6512115267016956]",True,True,dawsTwoStep,37,188698,0.0-37.0
1,"[1,0]","[0,1]","[2,3]","[false,true,false,true]",0,0,False,"[0.40716876848190797,0.550365912804007,0.45338623519103227,0.6545278635084315]",True,True,dawsTwoStep,38,193342,0.0-38.0
1,"[1,0]","[0,1]","[1,0]","[false,true,false,false]",0,1,True,"[0.3818807710763693,0.5796546203809462,0.4588697430406902,0.662811184838116]",True,False,dawsTwoStep,39,197057,0.0-39.0
1,"[1,0]","[1,0]","[1,0]","[true,false,true,true]",0,1,False,"[0.38439643871021784,0.6030939847086635,0.45866574327854737,0.6633937071709034]",True,False,dawsTwoStep,40,203289,0.0-40.0
1,"[0,1]","[1,0]","[2,3]","[false,true,true,true]",1,3,True,"[0.3758466980333067,0.6310488524007619,0.5323707094829738,0.6945222854657362]",True,True,dawsTwoStep,41,206843,0.0-41.0
1,"[0,1]","[0,1]","[2,3]","[false,true,true,false]",1,3,False,"[0.375048745264663,0.5971286481645447,0.5067041423617465,0.6685010891600683]",True,True,dawsTwoStep,42,209768,0.0-42.0
1,"[0,1]","[0,1]","[3,2]","[false,false,true,false]",0,0,False,"[0.3695462417938926,0.5971700850666376,0.4843004175162444,0.6686825983739438]",True,True,dawsTwoStep,43,215851,0.0-43.0
1,"[1,0]","[1,0]","[2,3]","[false,false,true,true]",1,3,True,"[0.34514140646292546,0.5829250592009829,0.4643857641613426,0.6703772978544688]",True,True,dawsTwoStep,44,219152,0.0-44.0
1,"[0,1]","[1,0]","[3,2]","[false,true,true,true]",1,3,True,"[0.32269640696039026,0.5684231230535362,0.44923383666701633,0.6797154003459307]",True,True,dawsTwoStep,45,222726,0.0-45.0
1,"[1,0]","[1,0]","[2,3]","[false,true,false,true]",1,3,True,"[0.2705075301528516,0.5383288509616836,0.4657489729808748,0.7028883225138934]",True,True,dawsTwoStep,46,226053,0.0-46.0
1,"[1,0]","[1,0]","[2,3]","[false,true,true,false]",1,3,False,"[0.27747273674970585,0.5333861422763568,0.4755961000932022,0.6718224857607308]",True,True,dawsTwoStep,47,229426,0.0-47.0
1,"[1,0]","[2,3]","[1,0]","[false,true,false,true]",0,3,True,"[0.25285387046825997,0.5244161884193645,0.48533733963156317,0.6581936563396406]",False,False,dawsTwoStep,48,240064,0.0-48.0
1,"[0,1]","[3,2]","[3,2]","[true,true,true,false]",1,3,False,"[0.25,0.5128219576840289,0.48154281429582535,0.6706628399677655]",False,True,dawsTwoStep,49,244932,0.0-49.0
1,"[0,1]","[1,0]","[2,3]","[false,false,false,false]",1,3,False,"[0.25,0.5056672401091854,0.4738681579147255,0.6512049022622002]",True,True,dawsTwoStep,50,248333,0.0-50.0
1,"[0,1]","[0,1]","[0,1]","[false,true,true,true]",1,0,False,"[0.252371571581528,0.48612707546971384,0.501292474030581,0.6801065493334691]",True,False,dawsTwoStep,51,253990,0.0-51.0
1,"[1,0]","[1,0]","[2,3]","[true,false,true,false]",0,1,False,"[0.25,0.5138579307895319,0.5290576090396676,0.6487763562546142]",True,True,dawsTwoStep,52,258776,0.0-52.0
1,"[0,1]","[1,0]","[3,2]","[true,true,false,true]",0,0,True,"[0.26142790125724436,0.4855112756046649,0.5410058330543425,0.6783718696999803]",True,True,dawsTwoStep,53,262190,0.0-53.0
1,"[1,0]","[3,2]","[1,0]","[false,true,false,true]",0,3,True,"[0.2870653424572076,0.4891047525057564,0.5799574811761664,0.6660552372283813]",False,False,dawsTwoStep,54,266271,0.0-54.0
1,"[1,0]","[0,1]","[3,2]","[false,true,false,false]",1,3,False,"[0.29831365612986693,0.4230158182864185,0.5743200665929354,0.6826789016644699]",True,True,dawsTwoStep,55,269687,0.0-55.0
1,"[1,0]","[1,0]","[1,0]","[false,false,true,true]",1,0,False,"[0.26478945677243015,0.386696774786969,0.6253099305502166,0.7113994718171723]",True,False,dawsTwoStep,56,274105,0.0-56.0
1,"[0,1]","[1,0]","[2,3]","[false,false,true,false]",0,0,False,"[0.25,0.3721011691806776,0.6376509965392917,0.6771329473630143]",True,True,dawsTwoStep,57,278075,0.0-57.0
1,"[0,1]","[1,0]","[3,2]","[false,false,true,true]",1,3,True,"[0.25,0.4009798133226514,0.6255373033554072,0.6970118429722411]",True,True,dawsTwoStep,58,282473,0.0-58.0
1,"[1,0]","[1,0]","[3,2]","[true,false,true,true]",1,3,True,"[0.2617828954526943,0.36491235074571665,0.6569057630671059,0.6600214279175722]",True,True,dawsTwoStep,59,285972,0.0-59.0
1,"[1,0]","[3,2]","[3,2]","[false,false,false,false]",1,3,False,"[0.27483189118678963,0.33242974940755415,0.6505623241982116,0.7095236264493087]",False,True,dawsTwoStep,60,288971,0.0-60.0
1,"[1,0]","[0,1]","[2,3]","[false,true,true,true]",0,0,False,"[0.25,0.3636539291825991,0.6261402828943731,0.7400050241971612]",True,True,dawsTwoStep,61,293278,0.0-61.0
1,"[0,1]","[0,1]","[2,3]","[true,true,true,true]",0,1,True,"[0.25,0.3566085230202063,0.6386030539693385,0.75]",True,True,dawsTwoStep,62,296854,0.0-62.0
1,"[0,1]","[0,1]","[3,2]","[false,true,true,false]",0,1,True,"[0.25,0.34878730790254064,0.5752464453078089,0.75]",True,True,dawsTwoStep,63,300487,0.0-63.0
1,"[0,1]","[1,0]","[2,3]","[true,true,false,true]",0,1,True,"[0.2799493164187949,0.3241100971573214,0.5821003857134902,0.75]",True,True,dawsTwoStep,64,303775,0.0-64.0
1,"[0,1]","[0,1]","[3,2]","[false,true,true,true]",0,1,True,"[0.2650388650119702,0.30958820602055787,0.5856837026829766,0.75]",True,True,dawsTwoStep,65,306810,0.0-65.0
1,"[0,1]","[3,2]","[2,3]","[false,false,true,true]",0,3,True,"[0.2683618969831495,0.34139451044544666,0.5423107570878288,0.75]",False,True,dawsTwoStep,66,310611,0.0-66.0
1,"[1,0]","[0,1]","[2,3]","[false,false,true,true]",1,3,True,"[0.25,0.3529563167038667,0.5525654945765333,0.744024216425837]",True,True,dawsTwoStep,67,313936,0.0-67.0
1,"[1,0]","[3,2]","[0,1]","[false,true,false,true]",1,0,False,"[0.25,0.33853208091108,0.5787439446593712,0.7267659739472577]",False,False,dawsTwoStep,68,318193,0.0-68.0
1,"[1,0]","[3,2]","[3,2]","[false,false,true,true]",1,3,True,"[0.25,0.3407886002628608,0.5764060211992104,0.6998163078289156]",False,True,dawsTwoStep,69,321135,0.0-69.0
1,"[0,1]","[0,1]","[3,2]","[false,true,true,true]",1,3,True,"[0.25,0.3105927771842123,0.5470460943818901,0.7172794787429496]",True,True,dawsTwoStep,70,324563,0.0-70.0
1,"[1,0]","[2,3]","[2,3]","[true,false,true,true]",1,3,True,"[0.2785481046747838,0.2882392147817891,0.5432168796050029,0.6739948094913482]",False,True,dawsTwoStep,71,327957,0.0-71.0
1,"[1,0]","[3,2]","[3,2]","[false,false,true,false]",0,3,False,"[0.27074960178756796,0.32278796718723884,0.5459516156172168,0.6837121015610603]",False,True,dawsTwoStep,72,332249,0.0-72.0
1,"[1,0]","[0,1]","[2,3]","[false,false,true,true]",1,3,True,"[0.25,0.3144596682055767,0.5853265366885266,0.735783791010376]",True,True,dawsTwoStep,73,336246,0.0-73.0
1,"[1,0]","[1,0]","[3,2]","[false,false,false,true]",1,3,True,"[0.26140211503311483,0.2965106703250969,0.5827809491414786,0.6953145205156687]",True,True,dawsTwoStep,74,339401,0.0-74.0
1,"[1,0]","[0,1]","[2,3]","[false,false,true,false]",1,3,False,"[0.2837115285611414,0.31797504223204087,0.5477642133401746,0.6790898938588739]",True,True,dawsTwoStep,75,342309,0.0-75.0
1,"[1,0]","[1,0]","[3,2]","[false,true,false,true]",0,1,True,"[0.320766399848786,0.3134784682258906,0.5363520087375123,0.6902474200276484]",True,True,dawsTwoStep,76,345618,0.0-76.0
1,"[0,1]","[0,1]","[0,1]","[false,true,true,false]",0,1,True,"[0.2895666506798536,0.3181786150108094,0.5225952317724064,0.6905924012102411]",True,False,dawsTwoStep,77,349503,0.0-77.0
1,"[1,0]","[0,1]","[3,2]","[true,true,false,true]",0,1,True,"[0.3093540705329732,0.30285035819626216,0.5328831597503461,0.7197861359964792]",True,True,dawsTwoStep,78,353015,0.0-78.0
1,"[0,1]","[0,1]","[2,3]","[false,false,true,false]",0,1,False,"[0.31760365210880026,0.29092324554401555,0.4991490583936976,0.7074875655777331]",True,True,dawsTwoStep,79,357131,0.0-79.0
1,"[0,1]","[0,1]","[2,3]","[true,false,false,false]",1,3,False,"[0.32513694740602095,0.2779007533075588,0.49728571928754967,0.7140291175420214]",True,True,dawsTwoStep,80,360974,0.0-80.0
1,"[1,0]","[1,0]","[2,3]","[false,false,true,true]",1,3,True,"[0.3147796519607085,0.2537415175900688,0.5317112681284325,0.715536762159722]",True,True,dawsTwoStep,81,364811,0.0-81.0
1,"[0,1]","[3,2]","[2,3]","[true,false,true,false]",0,2,True,"[0.338502679014789,0.25282486497541623,0.5259029283742584,0.7107600152982527]",False,True,dawsTwoStep,82,368146,0.0-82.0
1,"[0,1]","[0,1]","[3,2]","[false,false,false,true]",0,1,False,"[0.36943854667595294,0.27029657516388633,0.5050517113267468,0.7225339346473019]",True,True,dawsTwoStep,83,372024,0.0-83.0
1,"[1,0]","[0,1]","[3,2]","[true,false,false,false]",0,1,False,"[0.37370570413445725,0.25,0.4884787501261935,0.7224103579773592]",True,True,dawsTwoStep,84,376752,0.0-84.0
1,"[0,1]","[1,0]","[3,2]","[true,false,false,true]",1,3,True,"[0.3363397615256722,0.2802814805040197,0.4784224071303464,0.75]",True,True,dawsTwoStep,85,380005,0.0-85.0
1,"[1,0]","[1,0]","[0,1]","[true,false,false,true]",1,0,True,"[0.3799393498530337,0.31208352498431746,0.49920815047018346,0.7248563783005091]",True,False,dawsTwoStep,86,383679,0.0-86.0
1,"[1,0]","[0,1]","[0,1]","[true,false,false,true]",0,0,True,"[0.3870403862606564,0.2617409227243442,0.45659210420524243,0.7335984128919197]",True,False,dawsTwoStep,87,387767,0.0-87.0
1,"[0,1]","[1,0]","[3,2]","[true,false,false,false]",0,0,True,"[0.40711405006451884,0.25,0.4202091025406037,0.75]",True,True,dawsTwoStep,88,390922,0.0-88.0
1,"[1,0]","[3,2]","[2,3]","[false,false,false,true]",1,3,True,"[0.37779236631009094,0.25,0.4073541802143009,0.75]",False,True,dawsTwoStep,89,396351,0.0-89.0
1,"[0,1]","[1,0]","[3,2]","[true,false,false,true]",1,3,True,"[0.37662781485417995,0.28865220172385697,0.44690407956761435,0.75]",True,True,dawsTwoStep,90,399765,0.0-90.0
1,"[0,1]","[1,0]","[1,0]","[false,false,false,true]",1,1,False,"[0.3647697203644689,0.30293308578327915,0.41103986426224404,0.75]",True,False,dawsTwoStep,91,405250,0.0-91.0
1,"[1,0]","[0,1]","[1,0]","[true,false,true,true]",0,1,False,"[0.3453526903079213,0.28548871877729204,0.40295479701062514,0.7426881847539323]",True,False,dawsTwoStep,92,409788,0.0-92.0
1,"[1,0]","[1,0]","[0,1]","[false,false,true,true]",0,0,False,"[0.3883160492720895,0.3129839297424973,0.4454909209908542,0.7415379796977769]",True,False,dawsTwoStep,93,412682,0.0-93.0
1,"[0,1]","[3,2]","[2,3]","[true,true,true,false]",0,3,False,"[0.39875104388345683,0.3111256701874322,0.4689307591068662,0.75]",False,True,dawsTwoStep,94,416847,0.0-94.0
1,"[0,1]","[0,1]","[1,0]","[false,false,false,false]",0,0,False,"[0.3938601533288512,0.3224575634496678,0.42418071259609846,0.75]",True,False,dawsTwoStep,95,420718,0.0-95.0
1,"[0,1]","[0,1]","[2,3]","[true,false,true,true]",0,1,False,"[0.4194632580149352,0.2832942756764678,0.4251004142353733,0.75]",True,True,dawsTwoStep,96,423366,0.0-96.0
1,"[1,0]","[0,1]","[2,3]","[true,false,true,true]",0,0,True,"[0.4275931397873059,0.2693868272121049,0.4531186899073998,0.75]",True,True,dawsTwoStep,97,429022,0.0-97.0
1,"[1,0]","[0,1]","[2,3]","[false,false,false,true]",0,0,False,"[0.42832653157052747,0.25,0.4578933353817572,0.7232341607768353]",True,True,dawsTwoStep,98,432569,0.0-98.0
1,"[1,0]","[0,1]","[1,0]","[true,true,false,true]",1,0,True,"[0.41827867294860355,0.269951147799952,0.46948641785723494,0.7175714220041084]",True,False,dawsTwoStep,99,435631,0.0-99.0
1,"[0,1]","[0,1]","[3,2]","[true,true,false,true]",0,1,True,"[0.40242699969185425,0.29131796464808163,0.4571616497807776,0.676141176815005]",True,True,dawsTwoStep,100,439059,0.0-100.0
1,"[0,1]","[3,2]","[1,0]","[true,false,true,true]",0,3,True,"[0.40499706947130154,0.28716323765098595,0.5071394787391139,0.6684938841674737]",False,False,dawsTwoStep,101,445205,0.0-101.0
1,"[0,1]","[1,0]","[1,0]","[true,false,false,true]",1,0,True,"[0.4013409421365947,0.2836363206348414,0.5109768688378038,0.6556098369932373]",True,False,dawsTwoStep,102,449652,0.0-102.0
1,"[0,1]","[0,1]","[0,1]","[false,false,true,true]",0,1,False,"[0.3464953904715949,0.29702307202037626,0.524431347931674,0.610303969263909]",True,False,dawsTwoStep,103,453851,0.0-103.0
1,"[1,0]","[0,1]","[0,1]","[false,false,false,false]",1,0,False,"[0.3237857010796268,0.31257365148830696,0.5474646528383121,0.5781840999679315]",True,False,dawsTwoStep,104,457553,0.0-104.0
1,"[0,1]","[1,0]","[3,2]","[false,false,true,true]",1,3,True,"[0.3383361969352473,0.3163988504689631,0.5676837078166518,0.5977631332288985]",True,True,dawsTwoStep,105,460292,0.0-105.0
1,"[0,1]","[0,1]","[3,2]","[false,false,true,true]",1,3,True,"[0.33414246848981966,0.31406363111916674,0.5645436857802482,0.5827771937372029]",True,True,dawsTwoStep,106,463172,0.0-106.0
1,"[1,0]","[0,1]","[0,1]","[false,true,false,false]",1,0,False,"[0.343341155083291,0.3407156590989983,0.5412690323895729,0.5714834388571163]",True,False,dawsTwoStep,107,466704,0.0-107.0
1,"[0,1]","[0,1]","[3,2]","[true,true,true,true]",1,3,True,"[0.3720829925905715,0.3479841300079748,0.5221104909578556,0.5698262785163875]",True,True,dawsTwoStep,108,470862,0.0-108.0
1,"[1,0]","[0,1]","[2,3]","[true,false,true,true]",1,3,True,"[0.35985920412518846,0.3360070855137647,0.5557997978554561,0.5823025454787657]",True,True,dawsTwoStep,109,474404,0.0-109.0
1,"[0,1]","[3,2]","[3,2]","[false,false,true,false]",0,3,False,"[0.33463912674154017,0.3774299188987598,0.5636135666342625,0.5996849317536311]",False,True,dawsTwoStep,110,477225,0.0-110.0
1,"[0,1]","[0,1]","[3,2]","[false,false,false,true]",0,1,False,"[0.32962666569068166,0.35849334985305836,0.6128594805143222,0.6150845598849226]",True,True,dawsTwoStep,111,480058,0.0-111.0
1,"[0,1]","[1,0]","[3,2]","[true,true,true,false]",1,3,False,"[0.3319699667832288,0.3221921189500935,0.5889096176594373,0.636240908776108]",True,True,dawsTwoStep,112,483132,0.0-112.0
1,"[0,1]","[0,1]","[2,3]","[true,false,false,true]",1,3,True,"[0.32564781832190093,0.31999253727543747,0.5611942353169568,0.6899539327551203]",True,True,dawsTwoStep,113,486020,0.0-113.0
1,"[1,0]","[0,1]","[3,2]","[false,false,true,true]",1,3,True,"[0.3144472963033711,0.3067271083944226,0.5664207750339874,0.6799409295203452]",True,True,dawsTwoStep,114,489791,0.0-114.0
1,"[0,1]","[2,3]","[0,1]","[true,false,true,false]",1,1,False,"[0.3234249947051257,0.30950876729311816,0.5898873160630757,0.6889443417235122]",False,False,dawsTwoStep,115,494645,0.0-115.0
1,"[1,0]","[1,0]","[3,2]","[false,true,false,true]",1,3,True,"[0.34494689256829464,0.3111037096531148,0.5604795533614383,0.7091795228402012]",True,True,dawsTwoStep,116,497974,0.0-116.0
1,"[0,1]","[1,0]","[3,2]","[false,false,false,false]",1,3,False,"[0.37809646071802405,0.37375737255422786,0.5453743015263537,0.7238863964179286]",True,True,dawsTwoStep,117,503643,0.0-117.0
1,"[0,1]","[1,0]","[2,3]","[true,false,true,true]",1,3,True,"[0.38873470662218135,0.3628131146116016,0.5503199103338279,0.708871767239373]",True,True,dawsTwoStep,118,507091,0.0-118.0
1,"[1,0]","[0,1]","[1,0]","[false,false,true,true]",1,0,False,"[0.3787838518409486,0.3592251751056459,0.5187347245453184,0.705839481099454]",True,False,dawsTwoStep,119,510421,0.0-119.0
1,"[1,0]","[0,1]","[3,2]","[false,false,true,false]",1,3,False,"[0.34069045889895466,0.3780302143089059,0.5432518412223061,0.7311453309964294]",True,True,dawsTwoStep,120,513821,0.0-120.0
1,"[1,0]","[1,0]","[3,2]","[false,true,true,true]",0,0,False,"[0.37365251244726505,0.4156448201399233,0.5657674863118415,0.7420346569811254]",True,True,dawsTwoStep,121,517992,0.0-121.0
1,"[1,0]","[0,1]","[3,2]","[false,true,true,true]",0,0,False,"[0.35555494869844245,0.4001252271923142,0.6083889584508926,0.75]",True,True,dawsTwoStep,122,520640,0.0-122.0
1,"[1,0]","[2,3]","[2,3]","[false,true,false,true]",1,3,True,"[0.36888939466934245,0.3737170172721274,0.6515838735933498,0.7419890205030982]",False,True,dawsTwoStep,123,524091,0.0-123.0
1,"[1,0]","[0,1]","[1,0]","[false,false,false,false]",0,0,False,"[0.36020110293888763,0.3725502542866917,0.6634900764569271,0.7048355872667893]",True,False,dawsTwoStep,124,527258,0.0-124.0
1,"[0,1]","[3,2]","[0,1]","[false,false,true,false]",0,3,False,"[0.31535853536323594,0.38351723216323963,0.6774150500917006,0.7310400806552301]",False,False,dawsTwoStep,125,530432,0.0-125.0
1,"[1,0]","[2,3]","[3,2]","[true,false,false,true]",1,3,True,"[0.3631923946302784,0.38643412753012946,0.67479934170603,0.7041998733698758]",False,True,dawsTwoStep,126,534701,0.0-126.0
1,"[1,0]","[1,0]","[2,3]","[true,false,false,true]",1,3,True,"[0.304847629021682,0.3606866714942744,0.711141380245612,0.720804445884503]",True,True,dawsTwoStep,127,537955,0.0-127.0
1,"[1,0]","[0,1]","[1,0]","[true,false,true,true]",1,1,False,"[0.3432213898401894,0.3364681570532792,0.714559428183976,0.7414907833361806]",True,False,dawsTwoStep,128,541777,0.0-128.0
1,"[0,1]","[3,2]","[2,3]","[false,false,false,true]",0,3,True,"[0.33833075880264535,0.307070797512188,0.6913372119412194,0.75]",False,True,dawsTwoStep,129,546223,0.0-129.0
1,"[1,0]","[0,1]","[1,0]","[false,false,true,false]",0,1,False,"[0.34444521255838445,0.34448826026367846,0.6721849365687333,0.7178176423075799]",True,False,dawsTwoStep,130,550605,0.0-130.0
1,"[0,1]","[0,1]","[3,2]","[false,false,true,false]",1,2,True,"[0.3450975197557913,0.34784278933285717,0.6421022670534009,0.75]",True,True,dawsTwoStep,131,556480,0.0-131.0
1,"[0,1]","[3,2]","[2,3]","[false,false,true,true]",1,2,True,"[0.3221581130338696,0.3598853014668208,0.6410221784192403,0.75]",False,True,dawsTwoStep,132,560721,0.0-132.0
1,"[1,0]","[1,0]","[2,3]","[false,true,true,true]",1,2,True,"[0.3101213909578614,0.383526435015269,0.6293489355971045,0.7326416809202262]",True,True,dawsTwoStep,133,564249,0.0-133.0
1,"[0,1]","[3,2]","[3,2]","[false,false,true,true]",1,2,True,"[0.3006831235938404,0.38881697001455257,0.6513182809851902,0.7089044927839561]",False,True,dawsTwoStep,134,567620,0.0-134.0
1,"[1,0]","[2,3]","[3,2]","[false,false,true,true]",1,2,True,"[0.29308531019798123,0.3542810241875994,0.661502645916103,0.6909081466672052]",False,True,dawsTwoStep,135,571456,0.0-135.0
1,"[1,0]","[2,3]","[3,2]","[false,true,true,true]",1,2,True,"[0.2901312586774255,0.33782117964058833,0.6680836282453165,0.6431834260277334]",False,True,dawsTwoStep,136,575011,0.0-136.0
1,"[0,1]","[1,0]","[0,1]","[false,true,true,true]",1,1,True,"[0.3242523038466355,0.32797354450049165,0.6404074240413272,0.6446397881228888]",True,False,dawsTwoStep,137,579535,0.0-137.0
1,"[1,0]","[1,0]","[3,2]","[false,true,false,false]",1,2,False,"[0.333967145503207,0.3378384726288137,0.6371495871065845,0.6603826506336632]",True,True,dawsTwoStep,138,583742,0.0-138.0
1,"[0,1]","[1,0]","[3,2]","[false,false,true,false]",1,2,True,"[0.36912246540946364,0.3798448858018572,0.6543751615488348,0.6992826917296957]",True,True,dawsTwoStep,139,589544,0.0-139.0
1,"[1,0]","[0,1]","[3,2]","[false,false,true,true]",0,1,False,"[0.3904083622560233,0.368392589101566,0.6505376077699347,0.7421766869736411]",True,True,dawsTwoStep,140,595676,0.0-140.0
1,"[0,1]","[3,2]","[0,1]","[true,false,true,false]",0,3,False,"[0.4461296737328009,0.39072726477388,0.6266339579264468,0.6946704824804261]",False,False,dawsTwoStep,141,599062,0.0-141.0
1,"[0,1]","[3,2]","[1,0]","[true,false,false,false]",0,2,False,"[0.4847114493675492,0.4534584742074681,0.5994209131124789,0.6865370913150879]",False,False,dawsTwoStep,142,601984,0.0-142.0
1,"[0,1]","[0,1]","[3,2]","[true,true,true,true]",1,3,True,"[0.47970071403763714,0.4692723752007806,0.565281658157858,0.7330203632606432]",True,True,dawsTwoStep,143,605643,0.0-143.0
1,"[1,0]","[1,0]","[3,2]","[true,false,true,true]",1,3,True,"[0.4615502171952156,0.45347099644759675,0.5519077524820385,0.7418816902733774]",True,True,dawsTwoStep,144,609703,0.0-144.0
1,"[1,0]","[2,3]","[3,2]","[true,false,true,true]",1,3,True,"[0.48168597141761765,0.4924100630909315,0.5501307025619233,0.7293759391255965]",False,True,dawsTwoStep,145,613363,0.0-145.0
1,"[1,0]","[2,3]","[3,2]","[false,false,false,true]",1,3,True,"[0.5311943074246561,0.49779290691894873,0.5742893124021791,0.7132653734452071]",False,True,dawsTwoStep,146,616032,0.0-146.0
1,"[0,1]","[2,3]","[2,3]","[true,true,false,true]",0,3,True,"[0.5458202055344702,0.5016731142854014,0.6009683013737305,0.6956173488118126]",False,True,dawsTwoStep,147,619243,0.0-147.0
1,"[1,0]","[2,3]","[3,2]","[false,false,false,false]",1,3,False,"[0.5555146962668887,0.5187114017525359,0.5869870709355999,0.6965585105235295]",False,True,dawsTwoStep,148,622594,0.0-148.0
1,"[0,1]","[0,1]","[2,3]","[false,true,false,false]",1,3,False,"[0.5278104000372389,0.47466213657151396,0.6024575733224059,0.725760152560273]",True,True,dawsTwoStep,149,626908,0.0-149.0
1,"[1,0]","[1,0]","[3,2]","[false,true,true,true]",0,1,True,"[0.5750184138772825,0.46753741181940195,0.6144548372813036,0.7350417117488591]",True,True,dawsTwoStep,150,630368,0.0-150.0
1,"[1,0]","[0,1]","[2,3]","[true,false,false,true]",0,1,False,"[0.5380012312420972,0.4606295927172351,0.6035829172158002,0.75]",True,True,dawsTwoStep,151,633854,0.0-151.0
1,"[0,1]","[2,3]","[2,3]","[true,false,true,true]",1,3,True,"[0.5342211613348641,0.40735526643228126,0.641641924498325,0.75]",False,True,dawsTwoStep,152,637956,0.0-152.0
1,"[1,0]","[1,0]","[1,0]","[true,false,true,true]",0,1,False,"[0.5569802231942628,0.40067838735160055,0.6472563468645838,0.75]",True,False,dawsTwoStep,153,641341,0.0-153.0
1,"[0,1]","[0,1]","[2,3]","[true,false,true,false]",0,1,False,"[0.5495422304821534,0.38679341734649236,0.6201572274176892,0.75]",True,True,dawsTwoStep,154,645599,0.0-154.0
1,"[0,1]","[3,2]","[0,1]","[false,true,true,true]",0,3,True,"[0.5074831273901182,0.38963928174128654,0.6120786069139189,0.6970036588889094]",False,False,dawsTwoStep,155,648694,0.0-155.0
1,"[0,1]","[1,0]","[1,0]","[true,true,true,true]",1,0,True,"[0.4922823770003749,0.43345486676923517,0.6147894880664168,0.71743015352268]",True,False,dawsTwoStep,156,652222,0.0-156.0
1,"[0,1]","[1,0]","[0,1]","[true,false,true,false]",1,0,True,"[0.513986539843893,0.43449728559734274,0.6308696637228973,0.7092406418025449]",True,False,dawsTwoStep,157,654984,0.0-157.0
1,"[1,0]","[3,2]","[3,2]","[false,false,false,true]",0,2,False,"[0.5330578573769097,0.4214168179858606,0.6523546802247077,0.707343312692206]",False,True,dawsTwoStep,158,660089,0.0-158.0
1,"[1,0]","[3,2]","[2,3]","[false,true,true,true]",0,3,True,"[0.5414720639688737,0.4336989966201983,0.6342882347678428,0.6912317429882138]",False,True,dawsTwoStep,159,662941,0.0-159.0
1,"[1,0]","[0,1]","[3,2]","[true,true,true,true]",1,3,True,"[0.5290075779960632,0.4398022970680787,0.6428546903306093,0.6625413111805912]",True,True,dawsTwoStep,160,666179,0.0-160.0
1,"[0,1]","[0,1]","[3,2]","[false,true,true,true]",1,3,True,"[0.5241065545925665,0.46958838403026404,0.61605168539275,0.7056762475427953]",True,True,dawsTwoStep,161,669636,0.0-161.0
1,"[1,0]","[0,1]","[0,1]","[true,true,false,false]",1,0,True,"[0.5293134693996017,0.49858449676364375,0.6525037475433312,0.7127961069921227]",True,False,dawsTwoStep,162,673283,0.0-162.0
1,"[0,1]","[2,3]","[1,0]","[false,false,false,false]",1,0,False,"[0.5300280653154644,0.5123259604958189,0.6674799841137594,0.6652984755270819]",False,False,dawsTwoStep,163,677706,0.0-163.0
1,"[0,1]","[3,2]","[0,1]","[true,false,true,true]",1,0,True,"[0.5720723208168492,0.47450473920351177,0.668088892516694,0.6725814433521502]",False,False,dawsTwoStep,164,680695,0.0-164.0
1,"[1,0]","[3,2]","[2,3]","[false,false,false,true]",0,3,True,"[0.6051072187102576,0.5036529271084468,0.6829871417449953,0.7053008408022281]",False,True,dawsTwoStep,165,685793,0.0-165.0
1,"[1,0]","[1,0]","[2,3]","[true,true,true,false]",1,3,False,"[0.6095991834456574,0.4838189194217068,0.7040269406870158,0.6780139095096829]",True,True,dawsTwoStep,166,689310,0.0-166.0
1,"[1,0]","[2,3]","[0,1]","[true,false,true,true]",0,3,True,"[0.6077543820012915,0.4772220770032959,0.700788384803667,0.6444404818196997]",False,False,dawsTwoStep,167,692683,0.0-167.0
1,"[1,0]","[0,1]","[2,3]","[false,false,false,true]",1,3,True,"[0.6024308534049592,0.434148612041083,0.6849965433788694,0.6278388780376686]",True,True,dawsTwoStep,168,696250,0.0-168.0
1,"[1,0]","[3,2]","[1,0]","[true,false,true,true]",1,1,False,"[0.5802718799404962,0.3969413189004992,0.665631958620607,0.6324405613217003]",False,False,dawsTwoStep,169,699433,0.0-169.0
1,"[1,0]","[1,0]","[2,3]","[true,true,true,true]",1,3,True,"[0.5624242420571236,0.40432008797555247,0.6137727051018042,0.6507038773346473]",True,True,dawsTwoStep,170,702116,0.0-170.0
1,"[0,1]","[1,0]","[3,2]","[false,false,true,false]",1,3,False,"[0.6125271098404689,0.387069207072379,0.5984957021764172,0.6315754662531607]",True,True,dawsTwoStep,171,705839,0.0-171.0
1,"[0,1]","[1,0]","[1,0]","[false,false,true,true]",1,0,False,"[0.5843971163850096,0.41271268447711024,0.5885787349086947,0.6280343927651982]",True,False,dawsTwoStep,172,709392,0.0-172.0
1,"[1,0]","[1,0]","[2,3]","[false,false,true,false]",1,3,False,"[0.5744138003089523,0.41919012252439936,0.5686659173970232,0.6446941720596193]",True,True,dawsTwoStep,173,712737,0.0-173.0
1,"[1,0]","[1,0]","[1,0]","[false,false,true,true]",1,1,False,"[0.571084670400445,0.4372038069213578,0.5983483779692209,0.6663452143543234]",True,False,dawsTwoStep,174,715407,0.0-174.0
1,"[0,1]","[0,1]","[3,2]","[true,true,true,true]",0,1,True,"[0.6149271000367176,0.43636666292833787,0.5933984119541124,0.6507729005216724]",True,True,dawsTwoStep,175,721336,0.0-175.0
1,"[1,0]","[1,0]","[1,0]","[false,true,false,false]",0,1,True,"[0.6253332217306575,0.42612341593610886,0.6042654795715778,0.6908824679666373]",True,False,dawsTwoStep,176,725678,0.0-176.0
1,"[1,0]","[1,0]","[3,2]","[true,false,false,false]",0,0,True,"[0.5910888836950671,0.45344120722436837,0.6213658427743205,0.6989867811019607]",True,True,dawsTwoStep,177,728402,0.0-177.0
1,"[0,1]","[2,3]","[2,3]","[true,false,false,true]",0,3,True,"[0.6313605990952378,0.4414620729525522,0.6443555085407746,0.7167085770214213]",False,True,dawsTwoStep,178,732021,0.0-178.0
1,"[0,1]","[0,1]","[2,3]","[false,false,true,true]",1,3,True,"[0.5948117337685221,0.4496166021580325,0.6347182446569529,0.7329052341234165]",True,True,dawsTwoStep,179,736685,0.0-179.0
1,"[0,1]","[2,3]","[3,2]","[true,true,true,true]",1,3,True,"[0.6054648645586576,0.4315421152918465,0.640257564865711,0.75]",False,True,dawsTwoStep,180,739678,0.0-180.0
1,"[1,0]","[0,1]","[0,1]","[true,true,true,true]",1,1,True,"[0.6049148841005515,0.427399243614869,0.6184754214801731,0.75]",True,False,dawsTwoStep,181,743983,0.0-181.0
1,"[0,1]","[2,3]","[2,3]","[false,false,true,false]",1,3,False,"[0.6591757316425361,0.4031841119223782,0.6020336219871274,0.75]",False,True,dawsTwoStep,182,747091,0.0-182.0
1,"[0,1]","[1,0]","[2,3]","[false,false,false,true]",1,3,True,"[0.6846830663534395,0.4106088854638004,0.6256090356763551,0.75]",True,True,dawsTwoStep,183,750011,0.0-183.0
1,"[1,0]","[1,0]","[2,3]","[true,true,true,true]",1,3,True,"[0.6560494957368759,0.45146539110851075,0.653399479148336,0.7471735369679318]",True,True,dawsTwoStep,184,753832,0.0-184.0
1,"[0,1]","[3,2]","[3,2]","[true,false,true,true]",0,3,True,"[0.6767263080460906,0.4818289208401832,0.668644863560637,0.733924794061277]",False,True,dawsTwoStep,185,761685,0.0-185.0
1,"[1,0]","[1,0]","[3,2]","[true,false,false,false]",1,3,False,"[0.7025921747584876,0.47876091188138553,0.7006195072282049,0.75]",True,True,dawsTwoStep,186,766149,0.0-186.0
1,"[0,1]","[2,3]","[1,0]","[true,true,true,false]",1,0,True,"[0.7158619305798748,0.4943667638321224,0.7121012890301565,0.732843009363362]",False,False,dawsTwoStep,187,769511,0.0-187.0
1,"[0,1]","[0,1]","[0,1]","[false,false,true,true]",1,0,False,"[0.725067051890605,0.5023191076735661,0.7409945397481417,0.6851490507445669]",True,False,dawsTwoStep,188,772812,0.0-188.0
1,"[0,1]","[1,0]","[0,1]","[true,false,true,true]",0,0,True,"[0.740368434886035,0.43816605515097223,0.7278190062845622,0.6610030664813348]",True,False,dawsTwoStep,189,776373,0.0-189.0
1,"[0,1]","[1,0]","[3,2]","[true,false,true,true]",0,0,True,"[0.7452111416049381,0.43123723302498024,0.6992324563707233,0.6767398419845922]",True,True,dawsTwoStep,190,779338,0.0-190.0
1,"[1,0]","[0,1]","[2,3]","[true,false,false,false]",0,0,True,"[0.7377571506486852,0.47551793463165914,0.7193440667062356,0.6120591353849614]",True,True,dawsTwoStep,191,783448,0.0-191.0
1,"[0,1]","[1,0]","[2,3]","[true,false,true,true]",0,0,True,"[0.6963948577917161,0.46472868793424404,0.6835276176863229,0.6312372214252152]",True,True,dawsTwoStep,192,787317,0.0-192.0
1,"[1,0]","[2,3]","[1,0]","[true,true,true,false]",0,2,True,"[0.6713997975086261,0.4766438493747566,0.6741106996672365,0.639425538887129]",False,False,dawsTwoStep,193,791461,0.0-193.0
1,"[1,0]","[0,1]","[0,1]","[false,true,true,false]",1,1,True,"[0.6302558980946451,0.5043915684043183,0.6836121910228952,0.6600999082393508]",True,False,dawsTwoStep,194,794973,0.0-194.0
1,"[0,1]","[1,0]","[0,1]","[true,false,true,false]",1,1,False,"[0.6013076457296123,0.5592025666054954,0.7311285914831773,0.6405630731530675]",True,False,dawsTwoStep,195,798563,0.0-195.0
1,"[1,0]","[1,0]","[2,3]","[false,true,false,true]",1,2,False,"[0.5974749608855283,0.5621939151275643,0.6997844230577211,0.6711712918960124]",True,True,dawsTwoStep,196,803012,0.0-196.0
1,"[0,1]","[0,1]","[2,3]","[false,true,false,true]",0,1,True,"[0.6001133698461513,0.5804427296253871,0.6784664654742533,0.6813218111993264]",True,True,dawsTwoStep,197,806403,0.0-197.0
1,"[1,0]","[0,1]","[3,2]","[false,false,true,true]",0,0,False,"[0.6001781890967909,0.5611923022050462,0.6385541694711192,0.6688402433152103]",True,True,dawsTwoStep,198,810457,0.0-198.0
1,"[1,0]","[2,3]","[1,0]","[true,false,true,true]",1,0,True,"[0.6127284288659408,0.54005339763036,0.6659730413860026,0.6837733703364288]",False,False,dawsTwoStep,199,813849,0.0-199.0
2,"[0,1]","[1,0]","[2,3]","[true,false,true,false]",0,0,True,"[0.6140423680715412,0.42537103394694115,0.544872539964006,0.5365586230003496]",True,True,dawsTwoStep,0,8055,0.0-0.0
2,"[0,1]","[1,0]","[2,3]","[true,false,false,false]",0,0,True,"[0.6004316079024833,0.4400460418331277,0.5376851542752035,0.5833234973605974]",True,True,dawsTwoStep,1,13851,0.0-1.0
2,"[1,0]","[2,3]","[3,2]","[false,false,true,true]",0,2,True,"[0.6084725933543143,0.40064632077339685,0.547699952857592,0.583862760802044]",False,True,dawsTwoStep,2,19331,0.0-2.0
2,"[0,1]","[3,2]","[3,2]","[false,true,true,false]",1,2,True,"[0.5722844877206,0.42833908894859335,0.5222333724368682,0.5904223313561453]",False,True,dawsTwoStep,3,25406,0.0-3.0
2,"[1,0]","[1,0]","[3,2]","[true,true,true,false]",0,1,True,"[0.5278098938953856,0.43192273843518586,0.5380337543203904,0.5924831501940483]",True,True,dawsTwoStep,4,29171,0.0-4.0
2,"[0,1]","[0,1]","[3,2]","[false,true,true,true]",1,2,True,"[0.5546092784037695,0.4236180354021552,0.5002946836788277,0.5890789487870522]",True,True,dawsTwoStep,5,33692,0.0-5.0
2,"[0,1]","[1,0]","[2,3]","[false,false,false,true]",0,1,False,"[0.546519872682975,0.41943763692631164,0.5089149593775707,0.5878039012733166]",True,True,dawsTwoStep,6,37679,0.0-6.0
2,"[1,0]","[3,2]","[1,0]","[true,true,true,true]",0,2,True,"[0.5051699891500486,0.4548735857196275,0.5098612798896645,0.5577503450401939]",False,False,dawsTwoStep,7,42039,0.0-7.0
2,"[1,0]","[1,0]","[3,2]","[true,false,true,false]",1,2,True,"[0.4878867373013031,0.4408743229712008,0.5179810989300422,0.5879220705656462]",True,True,dawsTwoStep,8,45992,0.0-8.0
2,"[0,1]","[1,0]","[3,2]","[false,true,false,true]",0,1,True,"[0.5151662891108569,0.43887358809568877,0.5165847724041029,0.615788575336957]",True,True,dawsTwoStep,9,49490,0.0-9.0
2,"[1,0]","[0,1]","[3,2]","[false,false,false,false]",1,2,False,"[0.4949420386163295,0.46061674947588976,0.5318766772423477,0.6199440481029402]",True,True,dawsTwoStep,10,53138,0.0-10.0
2,"[0,1]","[1,0]","[3,2]","[true,true,true,true]",0,1,True,"[0.5267859007793964,0.4699056076148834,0.494699329575353,0.5993052898428339]",True,True,dawsTwoStep,11,56802,0.0-11.0
2,"[1,0]","[1,0]","[3,2]","[false,false,true,true]",0,1,False,"[0.5571769021322394,0.49704617853908184,0.48802398679673775,0.5954722167932139]",True,True,dawsTwoStep,12,60789,0.0-12.0
2,"[0,1]","[0,1]","[1,0]","[true,false,true,true]",1,0,True,"[0.5420761314578696,0.5002077685079377,0.5101908170443495,0.6024855045688189]",True,False,dawsTwoStep,13,63906,0.0-13.0
2,"[0,1]","[3,2]","[0,1]","[true,false,false,true]",1,1,False,"[0.5459495037363252,0.49782763203165004,0.5117967548134202,0.5838305071343625]",False,False,dawsTwoStep,14,67944,0.0-14.0
2,"[0,1]","[1,0]","[2,3]","[true,false,true,false]",1,2,True,"[0.5144801477116805,0.5113871320083303,0.5044612116831229,0.5520750280768547]",True,True,dawsTwoStep,15,73443,0.0-15.0
2,"[0,1]","[1,0]","[0,1]","[false,true,true,true]",0,1,True,"[0.4926362762131806,0.4733552758780033,0.4749734941322067,0.549061706598163]",True,False,dawsTwoStep,16,76979,0.0-16.0
2,"[1,0]","[3,2]","[3,2]","[false,true,true,true]",1,2,True,"[0.4793245057676142,0.4603914510847065,0.49367337944300244,0.5698765246150426]",False,True,dawsTwoStep,17,80747,0.0-17.0
2,"[1,0]","[2,3]","[0,1]","[true,true,false,true]",0,2,False,"[0.5233506155545002,0.4930228391259072,0.4768359334387911,0.5547490292403914]",False,False,dawsTwoStep,18,85662,0.0-18.0
2,"[0,1]","[1,0]","[2,3]","[false,false,true,true]",0,1,False,"[0.5295231157946482,0.47910428133063854,0.48116006667369665,0.5604518566569825]",True,True,dawsTwoStep,19,90044,0.0-19.0
2,"[0,1]","[0,1]","[2,3]","[true,false,false,false]",0,1,False,"[0.5405577105900924,0.4690689583878274,0.48484302103586413,0.5920628794062635]",True,True,dawsTwoStep,20,93360,0.0-20.0
2,"[0,1]","[0,1]","[1,0]","[true,true,true,true]",0,0,True,"[0.5697189072144688,0.4996075125847797,0.5013821907066034,0.5529985475816157]",True,False,dawsTwoStep,21,96822,0.0-21.0
2,"[0,1]","[1,0]","[2,3]","[true,true,false,false]",0,0,True,"[0.6200576123462209,0.518844911595827,0.4892815420962766,0.5730152715383147]",True,True,dawsTwoStep,22,100044,0.0-22.0
2,"[0,1]","[0,1]","[1,0]","[false,true,false,true]",0,0,False,"[0.6457048017665747,0.48150368260123344,0.4920589102520202,0.5995043241741542]",True,False,dawsTwoStep,23,103541,0.0-23.0
2,"[0,1]","[3,2]","[2,3]","[true,false,true,true]",0,2,True,"[0.6497126410839289,0.49795297418563456,0.5080082351087442,0.5857402847096812]",False,True,dawsTwoStep,24,107435,0.0-24.0
2,"[0,1]","[0,1]","[2,3]","[true,true,false,true]",1,2,False,"[0.6241233376054,0.5005986349701856,0.4974614975988304,0.5785960743308632]",True,True,dawsTwoStep,25,111444,0.0-25.0
2,"[1,0]","[3,2]","[3,2]","[true,true,true,true]",0,2,True,"[0.633075134985073,0.5123541830000389,0.47994393874700264,0.5815461523302845]",False,True,dawsTwoStep,26,115306,0.0-26.0
2,"[1,0]","[0,1]","[0,1]","[true,true,true,true]",1,0,True,"[0.6632626485561887,0.5241436256760814,0.5251659823746325,0.5627155079351057]",True,False,dawsTwoStep,27,119106,0.0-27.0
2,"[0,1]","[0,1]","[1,0]","[true,false,false,false]",0,0,True,"[0.6501518214834024,0.5268763147987545,0.5393709424696175,0.5770682519790075]",True,False,dawsTwoStep,28,123662,0.0-28.0
2,"[0,1]","[0,1]","[2,3]","[true,false,false,true]",0,0,True,"[0.6668026260052449,0.5365729142787028,0.5552003858620931,0.6075448509115946]",True,True,dawsTwoStep,29,127045,0.0-29.0
2,"[0,1]","[0,1]","[2,3]","[false,false,false,false]",1,3,False,"[0.640827893829238,0.5625176249594628,0.5207189704249549,0.6297609177920152]",True,True,dawsTwoStep,30,132481,0.0-30.0
2,"[1,0]","[2,3]","[2,3]","[true,true,false,true]",1,3,True,"[0.6058826365258777,0.5660235181255283,0.5256421752539535,0.6496443576485469]",False,True,dawsTwoStep,31,137358,0.0-31.0
2,"[1,0]","[0,1]","[3,2]","[true,true,false,true]",1,2,False,"[0.6083883485373007,0.5537012705835648,0.4905322274190552,0.6549892810047541]",True,True,dawsTwoStep,32,142458,0.0-32.0
2,"[1,0]","[0,1]","[2,3]","[false,true,false,true]",1,2,False,"[0.6037860096179981,0.5323296002898017,0.5053546549210902,0.6725460435655495]",True,True,dawsTwoStep,33,145781,0.0-33.0
2,"[0,1]","[0,1]","[2,3]","[true,false,true,true]",1,3,True,"[0.5910391547916639,0.5450542748788411,0.5116855725161177,0.7140091529552354]",True,True,dawsTwoStep,34,149786,0.0-34.0
2,"[0,1]","[0,1]","[2,3]","[true,false,true,true]",0,1,False,"[0.6165590041154734,0.49913772256473643,0.5333388445926155,0.6859734633991664]",True,True,dawsTwoStep,35,154562,0.0-35.0
2,"[0,1]","[1,0]","[2,3]","[true,false,false,true]",0,1,False,"[0.6009600405574239,0.42222532347530606,0.5437467694634248,0.7180227555510246]",True,True,dawsTwoStep,36,158051,0.0-36.0
2,"[1,0]","[0,1]","[1,0]","[true,false,false,true]",1,0,True,"[0.6042064784897228,0.36113668918693714,0.5333457902646991,0.7320977314194957]",True,False,dawsTwoStep,37,161362,0.0-37.0
2,"[0,1]","[1,0]","[3,2]","[true,true,false,true]",0,1,True,"[0.5975098052791231,0.3529791897938039,0.5375550396101655,0.75]",True,True,dawsTwoStep,38,166248,0.0-38.0
2,"[1,0]","[0,1]","[3,2]","[false,true,true,true]",0,1,True,"[0.6158979481077433,0.4102166109570809,0.5600275572845813,0.75]",True,True,dawsTwoStep,39,170964,0.0-39.0
2,"[1,0]","[0,1]","[1,0]","[false,false,false,false]",0,1,False,"[0.61321373474755,0.41372112657108606,0.5852719610321605,0.7353377969265695]",True,False,dawsTwoStep,40,175391,0.0-40.0
2,"[0,1]","[3,2]","[2,3]","[false,false,false,true]",1,2,False,"[0.6330258421979328,0.4412933077712791,0.5752887210210657,0.6643587281830775]",False,True,dawsTwoStep,41,181878,0.0-41.0
2,"[1,0]","[1,0]","[3,2]","[false,true,true,true]",1,2,True,"[0.6263005453985749,0.43960776928183526,0.5758397118037246,0.6714936429038157]",True,True,dawsTwoStep,42,185600,0.0-42.0
2,"[0,1]","[3,2]","[2,3]","[true,true,true,true]",0,2,True,"[0.6137933379414946,0.47050412848379997,0.5996947250861457,0.6897970081707219]",False,True,dawsTwoStep,43,190409,0.0-43.0
2,"[0,1]","[2,3]","[3,2]","[false,true,true,false]",0,2,True,"[0.5929016739378201,0.45569510805015884,0.6244578728499048,0.6679675734533115]",False,True,dawsTwoStep,44,193984,0.0-44.0
2,"[1,0]","[1,0]","[1,0]","[false,true,true,true]",0,0,False,"[0.598132040081041,0.41775878609798345,0.6329885639436778,0.6858475351180222]",True,False,dawsTwoStep,45,198866,0.0-45.0
2,"[0,1]","[1,0]","[3,2]","[true,false,false,true]",1,3,True,"[0.5949104100653277,0.4110172727677999,0.6438367556509523,0.668054908742043]",True,True,dawsTwoStep,46,202753,0.0-46.0
2,"[1,0]","[1,0]","[1,0]","[false,false,false,true]",0,1,False,"[0.5864268799656771,0.3885874140130061,0.6065913649136824,0.6999914703988772]",True,False,dawsTwoStep,47,207319,0.0-47.0
2,"[0,1]","[0,1]","[3,2]","[false,true,false,true]",0,0,False,"[0.593965166516562,0.4182483784673977,0.6326555021579408,0.6848248115209561]",True,True,dawsTwoStep,48,211401,0.0-48.0
2,"[1,0]","[1,0]","[0,1]","[true,true,false,false]",1,1,True,"[0.5201844708079565,0.4184347512761741,0.643065609242828,0.66097896033069]",True,False,dawsTwoStep,49,215864,0.0-49.0
2,"[1,0]","[2,3]","[2,3]","[false,false,true,false]",1,2,True,"[0.4496328630482213,0.42260333609623363,0.6206412705649041,0.6822024547324248]",False,True,dawsTwoStep,50,219911,0.0-50.0
2,"[0,1]","[3,2]","[0,1]","[false,false,true,false]",0,2,True,"[0.43908459662545357,0.3954620861664994,0.5900556631864361,0.6642632363157097]",False,False,dawsTwoStep,51,224397,0.0-51.0
2,"[0,1]","[1,0]","[3,2]","[false,false,false,true]",0,1,False,"[0.4139296081636739,0.35233191005978864,0.6259829972050066,0.7119351501158444]",True,True,dawsTwoStep,52,228609,0.0-52.0
2,"[1,0]","[2,3]","[1,0]","[false,false,true,true]",1,0,False,"[0.39986342867262126,0.37050031035199743,0.6441846765383583,0.7138809232343014]",False,False,dawsTwoStep,53,234323,0.0-53.0
2,"[0,1]","[0,1]","[3,2]","[true,false,true,true]",1,3,True,"[0.439923650109068,0.36537066711956945,0.6539201170719324,0.7229859066393773]",True,True,dawsTwoStep,54,238192,0.0-54.0
2,"[0,1]","[0,1]","[0,1]","[false,false,true,false]",1,1,False,"[0.3874723208769051,0.3470945143682599,0.651190292857877,0.7108940588027366]",True,False,dawsTwoStep,55,242422,0.0-55.0
2,"[0,1]","[0,1]","[3,2]","[false,true,true,true]",1,3,True,"[0.39921061068217545,0.376003446259139,0.6544489546180113,0.7062814518785674]",True,True,dawsTwoStep,56,247864,0.0-56.0
2,"[1,0]","[3,2]","[3,2]","[true,true,true,false]",0,2,True,"[0.38412739060782486,0.37591546024815503,0.6344835791697626,0.6801701457804343]",False,True,dawsTwoStep,57,254005,0.0-57.0
2,"[0,1]","[2,3]","[3,2]","[true,false,true,true]",1,3,True,"[0.4083178846134879,0.4283263052186404,0.6574909367883259,0.6500755849198065]",False,True,dawsTwoStep,58,276408,0.0-58.0
2,"[0,1]","[1,0]","[1,0]","[false,false,true,false]",1,0,False,"[0.4121858427734967,0.46675560216128453,0.6504111618466066,0.6342210273608128]",True,False,dawsTwoStep,59,280446,0.0-59.0
2,"[1,0]","[1,0]","[2,3]","[false,true,true,false]",0,0,False,"[0.39699270000294073,0.4842352420333354,0.6646085123668057,0.6914325434204027]",True,True,dawsTwoStep,60,284489,0.0-60.0
2,"[0,1]","[0,1]","[2,3]","[true,false,true,false]",1,2,True,"[0.42143965111824044,0.5071297742970957,0.6658918159516543,0.6919948066919097]",True,True,dawsTwoStep,61,288103,0.0-61.0
2,"[1,0]","[0,1]","[3,2]","[false,false,true,true]",0,1,False,"[0.42389465558549344,0.4971343798919585,0.6427636885929493,0.7376043894136266]",True,True,dawsTwoStep,62,292043,0.0-62.0
2,"[0,1]","[1,0]","[2,3]","[true,true,true,false]",0,1,True,"[0.4150676640973655,0.4669891205342379,0.6236411059295096,0.75]",True,True,dawsTwoStep,63,297283,0.0-63.0
2,"[1,0]","[0,1]","[2,3]","[false,true,true,true]",1,3,True,"[0.3964362410869486,0.5011046616812601,0.6143329825474753,0.75]",True,True,dawsTwoStep,64,301060,0.0-64.0
2,"[1,0]","[2,3]","[1,0]","[false,true,false,true]",1,1,True,"[0.4088010829070373,0.4936518846439921,0.622383088624726,0.75]",False,False,dawsTwoStep,65,304388,0.0-65.0
2,"[0,1]","[1,0]","[2,3]","[false,false,true,true]",0,0,False,"[0.42341247109325825,0.529454049890213,0.5907583049736707,0.75]",True,True,dawsTwoStep,66,309294,0.0-66.0
2,"[1,0]","[1,0]","[2,3]","[true,true,false,true]",0,1,True,"[0.3951008221996506,0.5186606281561819,0.5889919165741894,0.75]",True,True,dawsTwoStep,67,313135,0.0-67.0
2,"[1,0]","[3,2]","[2,3]","[false,true,false,true]",0,2,False,"[0.3875848331136212,0.47061355576626734,0.6309146480798382,0.75]",False,True,dawsTwoStep,68,317243,0.0-68.0
2,"[0,1]","[2,3]","[2,3]","[false,false,false,true]",1,2,False,"[0.4281861944914304,0.48187469325681703,0.6331275064588652,0.7492709143031989]",False,True,dawsTwoStep,69,321144,0.0-69.0
2,"[1,0]","[1,0]","[3,2]","[true,false,false,true]",0,0,True,"[0.4448505340848738,0.46705209513451174,0.6490906883184508,0.75]",True,True,dawsTwoStep,70,328372,0.0-70.0
2,"[0,1]","[1,0]","[2,3]","[true,false,true,true]",1,2,True,"[0.4492407655845687,0.44028724269091146,0.6128836051826483,0.75]",True,True,dawsTwoStep,71,332388,0.0-71.0
2,"[0,1]","[1,0]","[1,0]","[true,false,true,true]",1,1,False,"[0.4689429157508192,0.5056703251869756,0.6401917579495175,0.75]",True,False,dawsTwoStep,72,336221,0.0-72.0
2,"[0,1]","[0,1]","[3,2]","[true,false,true,true]",0,0,True,"[0.5093500144243159,0.5262493121674751,0.6482777199641605,0.75]",True,True,dawsTwoStep,73,339942,0.0-73.0
2,"[0,1]","[0,1]","[0,1]","[true,true,true,true]",0,1,True,"[0.5223964223345384,0.4874709718196095,0.6660570123491761,0.75]",True,False,dawsTwoStep,74,343845,0.0-74.0
2,"[1,0]","[1,0]","[1,0]","[false,true,true,true]",1,1,True,"[0.49949797926282996,0.5056496875955296,0.6734307390953792,0.75]",True,False,dawsTwoStep,75,347524,0.0-75.0
2,"[0,1]","[0,1]","[1,0]","[true,true,true,false]",0,1,True,"[0.5458678254670776,0.5391069378924982,0.6603362824020456,0.7361924460857979]",True,False,dawsTwoStep,76,351931,0.0-76.0
2,"[1,0]","[3,2]","[0,1]","[false,false,true,true]",1,0,False,"[0.5428483437936589,0.5689581494265241,0.6290570216368531,0.7191288473438548]",False,False,dawsTwoStep,77,356542,0.0-77.0
2,"[0,1]","[0,1]","[1,0]","[true,true,true,true]",0,1,True,"[0.5603870624039746,0.5773325107264144,0.6269976924215452,0.7384206848993444]",True,False,dawsTwoStep,78,359821,0.0-78.0
2,"[1,0]","[0,1]","[2,3]","[false,true,false,false]",1,3,False,"[0.561528632741567,0.5261195191086606,0.6155499135582504,0.7424946113314381]",True,True,dawsTwoStep,79,363522,0.0-79.0
2,"[1,0]","[2,3]","[2,3]","[true,false,true,true]",1,2,True,"[0.592562648233153,0.5154945764955241,0.5870427036840067,0.7321918771908165]",False,True,dawsTwoStep,80,366661,0.0-80.0
2,"[1,0]","[1,0]","[3,2]","[false,true,false,true]",1,2,False,"[0.6109201977704118,0.5424136476016926,0.5919473857947956,0.75]",True,True,dawsTwoStep,81,374945,0.0-81.0
2,"[0,1]","[1,0]","[3,2]","[false,false,true,true]",0,1,False,"[0.6199611417885614,0.5639066783415501,0.628017886460497,0.75]",True,True,dawsTwoStep,82,378781,0.0-82.0
2,"[1,0]","[3,2]","[3,2]","[true,true,true,true]",1,2,True,"[0.6387153501748863,0.5859862915311422,0.6287262787776746,0.75]",False,True,dawsTwoStep,83,382385,0.0-83.0
2,"[0,1]","[0,1]","[2,3]","[true,false,true,true]",0,1,False,"[0.6551904365505761,0.6157042566826271,0.6099319005273708,0.7406464489284312]",True,True,dawsTwoStep,84,386313,0.0-84.0
2,"[1,0]","[1,0]","[3,2]","[false,false,true,true]",1,3,True,"[0.6625668276191687,0.6186049948588196,0.6187201598409798,0.75]",True,True,dawsTwoStep,85,389786,0.0-85.0
2,"[1,0]","[1,0]","[0,1]","[true,false,true,false]",1,0,True,"[0.6302576768715205,0.6295146260595003,0.6308800924305474,0.7179001860944946]",True,False,dawsTwoStep,86,393335,0.0-86.0
2,"[0,1]","[0,1]","[2,3]","[true,true,false,true]",1,2,False,"[0.6842421067199276,0.6412961604515848,0.6385934857726413,0.6884395893011009]",True,True,dawsTwoStep,87,397991,0.0-87.0
2,"[1,0]","[1,0]","[2,3]","[true,true,true,false]",0,0,True,"[0.6859667922684489,0.6774748423844225,0.6886155731712508,0.6960902563562489]",True,True,dawsTwoStep,88,401745,0.0-88.0
2,"[0,1]","[2,3]","[2,3]","[true,true,true,true]",1,2,True,"[0.6545450351182516,0.6995991606319956,0.6882846313199816,0.6680822766092931]",False,True,dawsTwoStep,89,405423,0.0-89.0
2,"[0,1]","[0,1]","[0,1]","[false,true,false,true]",1,1,True,"[0.7225684700285838,0.7002924982340594,0.7292215132592208,0.639307419909389]",True,False,dawsTwoStep,90,409359,0.0-90.0
2,"[1,0]","[3,2]","[3,2]","[false,true,true,true]",0,3,True,"[0.75,0.6918166969384842,0.7046548669783168,0.6181989345919898]",False,True,dawsTwoStep,91,412615,0.0-91.0
2,"[1,0]","[3,2]","[2,3]","[false,false,true,false]",0,2,True,"[0.7487039895477117,0.6702271809784155,0.6998776073513716,0.6392956368101916]",False,True,dawsTwoStep,92,416201,0.0-92.0
2,"[1,0]","[2,3]","[2,3]","[true,true,true,false]",1,2,True,"[0.723148776045037,0.6899750231240503,0.6639542192538654,0.653618891301771]",False,True,dawsTwoStep,93,419887,0.0-93.0
2,"[0,1]","[0,1]","[1,0]","[true,true,false,true]",0,1,True,"[0.7011729412793175,0.6950986995998993,0.6578768734907449,0.6539962117694853]",True,False,dawsTwoStep,94,423715,0.0-94.0
2,"[1,0]","[0,1]","[3,2]","[true,true,true,true]",1,3,True,"[0.6846407794437742,0.683345238150668,0.6730564439448591,0.6850390343528242]",True,True,dawsTwoStep,95,427775,0.0-95.0
2,"[1,0]","[1,0]","[3,2]","[true,true,true,true]",1,2,True,"[0.7068636943180914,0.6787983883489656,0.6699065940884132,0.637605832502846]",True,True,dawsTwoStep,96,432361,0.0-96.0
2,"[0,1]","[0,1]","[3,2]","[true,true,true,false]",0,1,True,"[0.6726260515102414,0.7046389000712887,0.7086486469996982,0.6399107384010801]",True,True,dawsTwoStep,97,435720,0.0-97.0
2,"[0,1]","[0,1]","[2,3]","[true,false,true,true]",1,2,True,"[0.7339700356913279,0.7324483351324281,0.717900218147853,0.6776911059871594]",True,True,dawsTwoStep,98,439883,0.0-98.0
2,"[1,0]","[2,3]","[1,0]","[true,true,true,false]",0,2,True,"[0.75,0.75,0.7405505864210238,0.6709315781606584]",False,False,dawsTwoStep,99,442984,0.0-99.0
2,"[1,0]","[0,1]","[2,3]","[true,true,true,false]",0,1,True,"[0.75,0.75,0.75,0.6987701647527652]",True,True,dawsTwoStep,100,446928,0.0-100.0
2,"[1,0]","[1,0]","[0,1]","[false,false,true,true]",1,0,False,"[0.75,0.7419126286957228,0.7359003631589982,0.7033682081542317]",True,False,dawsTwoStep,101,452797,0.0-101.0
2,"[1,0]","[1,0]","[2,3]","[true,false,true,false]",1,3,False,"[0.7252707523240359,0.7193376292523248,0.7133583329567281,0.6723709011480896]",True,True,dawsTwoStep,102,455653,0.0-102.0
2,"[1,0]","[1,0]","[2,3]","[true,true,true,true]",1,2,True,"[0.7152985789264868,0.7062502011337114,0.6979701722551697,0.6560429493652333]",True,True,dawsTwoStep,103,459555,0.0-103.0
2,"[0,1]","[0,1]","[2,3]","[true,true,false,false]",0,1,True,"[0.6950605214746259,0.7264351677902661,0.6612308767083689,0.6758391557806732]",True,True,dawsTwoStep,104,462739,0.0-104.0
2,"[1,0]","[2,3]","[1,0]","[false,true,true,true]",1,1,True,"[0.6711798538873737,0.75,0.6263619895340905,0.7122853643592302]",False,False,dawsTwoStep,105,469715,0.0-105.0
2,"[1,0]","[1,0]","[2,3]","[true,true,true,true]",1,3,True,"[0.7032874382621717,0.7497269084533951,0.6157538186399805,0.7112983956858142]",True,True,dawsTwoStep,106,472701,0.0-106.0
2,"[0,1]","[2,3]","[1,0]","[true,true,false,true]",0,3,True,"[0.75,0.75,0.5974068464028301,0.678047136655076]",False,False,dawsTwoStep,107,476360,0.0-107.0
2,"[1,0]","[0,1]","[2,3]","[true,false,true,false]",1,2,True,"[0.75,0.7458032489876443,0.6491096835851519,0.6429090444585148]",True,True,dawsTwoStep,108,480475,0.0-108.0
2,"[1,0]","[0,1]","[2,3]","[false,true,false,true]",1,2,False,"[0.7212693978475063,0.7225647383911766,0.6292621800473825,0.6124457937438006]",True,True,dawsTwoStep,109,484529,0.0-109.0
2,"[0,1]","[2,3]","[2,3]","[true,true,false,false]",0,3,False,"[0.6797905148148453,0.7354261287862613,0.6333979265949436,0.6260826170812673]",False,True,dawsTwoStep,110,487587,0.0-110.0
2,"[0,1]","[1,0]","[0,1]","[true,true,false,true]",0,1,True,"[0.6859748398604137,0.75,0.613695970331412,0.6616914964369847]",True,False,dawsTwoStep,111,492004,0.0-111.0
2,"[1,0]","[1,0]","[2,3]","[true,true,true,true]",1,3,True,"[0.6759245628561258,0.75,0.6246367833030243,0.6445291814152542]",True,True,dawsTwoStep,112,496127,0.0-112.0
2,"[1,0]","[2,3]","[3,2]","[true,false,true,true]",1,3,True,"[0.7059985775805413,0.7319945240424164,0.6201959479913479,0.6470417487966311]",False,True,dawsTwoStep,113,501030,0.0-113.0
2,"[0,1]","[0,1]","[3,2]","[true,true,false,false]",0,1,True,"[0.6770066208615609,0.7300543472792729,0.663512777107807,0.6468365833783761]",True,True,dawsTwoStep,114,505570,0.0-114.0
2,"[0,1]","[1,0]","[3,2]","[false,true,true,false]",0,1,True,"[0.7090544040847939,0.75,0.7257612361472978,0.5925549683113294]",True,True,dawsTwoStep,115,509950,0.0-115.0
2,"[1,0]","[1,0]","[0,1]","[true,true,true,true]",1,1,True,"[0.6944048161122671,0.737766451449623,0.6870311783233072,0.5760953409442721]",True,False,dawsTwoStep,116,515566,0.0-116.0
2,"[0,1]","[2,3]","[1,0]","[true,true,true,false]",0,2,True,"[0.7125396603418471,0.7072447308801812,0.6989881161506661,0.5766256992486756]",False,False,dawsTwoStep,117,519221,0.0-117.0
2,"[0,1]","[3,2]","[3,2]","[true,false,true,true]",0,3,True,"[0.7360457524556306,0.75,0.6826028514167595,0.5904146595840198]",False,True,dawsTwoStep,118,523184,0.0-118.0
2,"[1,0]","[1,0]","[0,1]","[true,true,false,true]",1,1,True,"[0.7072338731270685,0.75,0.6088189398110486,0.6230357008328488]",True,False,dawsTwoStep,119,526885,0.0-119.0
2,"[1,0]","[3,2]","[3,2]","[true,true,false,true]",1,3,True,"[0.7132670062258777,0.75,0.6135576906540912,0.6322889029559973]",False,True,dawsTwoStep,120,530323,0.0-120.0
2,"[0,1]","[3,2]","[1,0]","[false,true,true,true]",0,2,True,"[0.6904364114226745,0.748776684496461,0.6340440872461076,0.6353854789632647]",False,False,dawsTwoStep,121,533531,0.0-121.0
2,"[0,1]","[3,2]","[3,2]","[true,true,true,false]",0,3,False,"[0.7124031959592237,0.7130225510785917,0.6564573891650675,0.6560559809416767]",False,True,dawsTwoStep,122,537226,0.0-122.0
2,"[1,0]","[0,1]","[0,1]","[true,true,true,true]",1,1,True,"[0.706639699422834,0.7140448656551308,0.6341744436997077,0.6946127937797404]",True,False,dawsTwoStep,123,540020,0.0-123.0
2,"[0,1]","[2,3]","[0,1]","[true,true,true,true]",0,2,True,"[0.682216714529687,0.7059182507687213,0.6393894477044941,0.7299214783176919]",False,False,dawsTwoStep,124,543781,0.0-124.0
2,"[0,1]","[1,0]","[0,1]","[true,false,true,true]",1,1,False,"[0.6741278100578703,0.7107010820443338,0.6459435902586967,0.7038035962116215]",True,False,dawsTwoStep,125,549183,0.0-125.0
2,"[1,0]","[0,1]","[2,3]","[false,true,true,true]",0,0,False,"[0.6687126108424498,0.7448697161644838,0.6182091636589474,0.7141878139038642]",True,True,dawsTwoStep,126,552455,0.0-126.0
2,"[0,1]","[3,2]","[2,3]","[false,true,true,true]",1,3,True,"[0.6471916653683661,0.7296101332249152,0.6140808637298409,0.7192584325883364]",False,True,dawsTwoStep,127,556393,0.0-127.0
2,"[1,0]","[1,0]","[2,3]","[true,true,true,true]",0,1,True,"[0.7029841176222715,0.75,0.6209975505067958,0.7412335796718336]",True,True,dawsTwoStep,128,560439,0.0-128.0
2,"[0,1]","[0,1]","[0,1]","[false,true,false,true]",1,0,False,"[0.6849996854819058,0.7245679416590296,0.6270056465357348,0.75]",True,False,dawsTwoStep,129,563861,0.0-129.0
2,"[0,1]","[1,0]","[3,2]","[false,false,false,true]",1,2,False,"[0.6654499295029614,0.7235356353386951,0.6175761709779574,0.742554741029859]",True,True,dawsTwoStep,130,566691,0.0-130.0
2,"[0,1]","[3,2]","[3,2]","[true,false,true,true]",1,3,True,"[0.6605271620670852,0.7477274646274037,0.7120961512255111,0.7141207064393879]",False,True,dawsTwoStep,131,569694,0.0-131.0
2,"[0,1]","[2,3]","[3,2]","[false,true,true,true]",1,2,True,"[0.6306770586451204,0.7395406453038166,0.7272104450207996,0.7229361254323606]",False,True,dawsTwoStep,132,573790,0.0-132.0
2,"[0,1]","[1,0]","[3,2]","[false,true,true,true]",1,2,True,"[0.6198361476592348,0.7331049644970274,0.7242127029385652,0.7215264838542972]",True,True,dawsTwoStep,133,576957,0.0-133.0
2,"[0,1]","[2,3]","[3,2]","[true,true,true,true]",1,3,True,"[0.6294632473303355,0.739224447192369,0.7481223665736515,0.745959278563492]",False,True,dawsTwoStep,134,582978,0.0-134.0
2,"[1,0]","[1,0]","[3,2]","[true,true,true,true]",0,0,True,"[0.6463869453246228,0.7256653245969067,0.7367339083190019,0.7373347549983266]",True,True,dawsTwoStep,135,587402,0.0-135.0
2,"[1,0]","[2,3]","[3,2]","[true,true,true,true]",0,2,True,"[0.6690808524220633,0.7468683147524597,0.701906076650719,0.75]",False,True,dawsTwoStep,136,590845,0.0-136.0
2,"[1,0]","[2,3]","[2,3]","[true,false,true,true]",0,3,True,"[0.649679872753048,0.7410047700862024,0.7022276506884637,0.75]",False,True,dawsTwoStep,137,593588,0.0-137.0
2,"[1,0]","[1,0]","[1,0]","[true,true,false,true]",0,0,True,"[0.6471436256867686,0.7252418345774141,0.6873030905795648,0.7149665329166713]",True,False,dawsTwoStep,138,596550,0.0-138.0
2,"[0,1]","[0,1]","[2,3]","[true,true,true,true]",1,2,True,"[0.6431308009721806,0.7479196362713122,0.6456579247732455,0.75]",True,True,dawsTwoStep,139,601286,0.0-139.0
2,"[0,1]","[2,3]","[3,2]","[true,true,false,true]",1,3,True,"[0.6274467080529531,0.7323342875832917,0.6524760774485378,0.75]",False,True,dawsTwoStep,140,607716,0.0-140.0
2,"[0,1]","[0,1]","[3,2]","[true,true,true,true]",1,2,True,"[0.6128084425126284,0.6963041836149495,0.6195444047863966,0.7485985152371015]",True,True,dawsTwoStep,141,613021,0.0-141.0
2,"[0,1]","[1,0]","[3,2]","[true,true,false,false]",1,3,False,"[0.5910385647587797,0.7199548914869823,0.659903666126788,0.7323054307074796]",True,True,dawsTwoStep,142,616533,0.0-142.0
2,"[1,0]","[1,0]","[3,2]","[false,true,true,true]",1,2,True,"[0.5592340282270439,0.75,0.6688420493242394,0.75]",True,True,dawsTwoStep,143,620855,0.0-143.0
2,"[1,0]","[1,0]","[2,3]","[true,false,true,false]",1,2,True,"[0.5414054691560493,0.75,0.6679438499898216,0.75]",True,True,dawsTwoStep,144,624964,0.0-144.0
2,"[1,0]","[1,0]","[3,2]","[false,false,true,true]",1,3,True,"[0.5328258937152354,0.75,0.6387231705812295,0.75]",True,True,dawsTwoStep,145,628671,0.0-145.0
2,"[0,1]","[3,2]","[3,2]","[false,true,true,true]",0,2,True,"[0.5128125712446732,0.743863250572927,0.6720139836141181,0.75]",False,True,dawsTwoStep,146,632651,0.0-146.0
2,"[0,1]","[3,2]","[2,3]","[true,true,false,true]",1,2,False,"[0.5476981982258847,0.75,0.6704517138932546,0.7412621598873315]",False,True,dawsTwoStep,147,637328,0.0-147.0
2,"[1,0]","[3,2]","[0,1]","[false,true,true,false]",0,2,True,"[0.5155685439132558,0.7336220007004465,0.6849525439382714,0.7433418805949574]",False,False,dawsTwoStep,148,640452,0.0-148.0
2,"[1,0]","[0,1]","[3,2]","[true,false,true,false]",0,0,True,"[0.538778321706668,0.75,0.6136288642782372,0.7220897691939681]",True,True,dawsTwoStep,149,644361,0.0-149.0
2,"[1,0]","[0,1]","[0,1]","[true,true,false,true]",0,1,True,"[0.5984174575976056,0.75,0.6189927292726016,0.7374150632718559]",True,False,dawsTwoStep,150,648421,0.0-150.0
2,"[1,0]","[3,2]","[0,1]","[false,false,true,false]",0,2,True,"[0.6206958678587824,0.75,0.6314828882744249,0.75]",False,False,dawsTwoStep,151,653125,0.0-151.0
2,"[0,1]","[1,0]","[2,3]","[false,true,true,true]",1,2,True,"[0.5996122499738828,0.75,0.656291339082326,0.6930866093212722]",True,True,dawsTwoStep,152,657236,0.0-152.0
2,"[1,0]","[0,1]","[1,0]","[true,true,false,false]",0,1,True,"[0.5857758404163708,0.7269935926978413,0.6709134323784375,0.7000371038424508]",True,False,dawsTwoStep,153,661001,0.0-153.0
2,"[0,1]","[1,0]","[3,2]","[false,true,true,false]",1,3,False,"[0.5905402306402302,0.75,0.6988007826727747,0.7363358049328732]",True,True,dawsTwoStep,154,665056,0.0-154.0
2,"[0,1]","[1,0]","[2,3]","[false,true,true,true]",1,3,True,"[0.6118330227168542,0.7462540872059832,0.7201024740262273,0.7062393218352695]",True,True,dawsTwoStep,155,667953,0.0-155.0
2,"[0,1]","[3,2]","[2,3]","[true,true,false,true]",1,2,False,"[0.6160404651290948,0.7453789512510866,0.7109981570613749,0.7304401887440534]",False,True,dawsTwoStep,156,671510,0.0-156.0
2,"[0,1]","[0,1]","[3,2]","[true,true,true,true]",1,2,True,"[0.6159867024178632,0.7051365217662089,0.7057121899154429,0.7392342747090681]",True,True,dawsTwoStep,157,675609,0.0-157.0
2,"[1,0]","[0,1]","[0,1]","[true,false,true,true]",1,1,False,"[0.6056634973806495,0.7219612625043993,0.7250443786464424,0.75]",True,False,dawsTwoStep,158,680175,0.0-158.0
2,"[1,0]","[0,1]","[3,2]","[true,true,true,false]",1,3,False,"[0.6236631810446714,0.703013948130134,0.7268455435258107,0.7457166440503977]",True,True,dawsTwoStep,159,684838,0.0-159.0
2,"[1,0]","[0,1]","[3,2]","[true,true,true,false]",1,2,True,"[0.6310779524602835,0.7230397873375767,0.75,0.7384512869093841]",True,True,dawsTwoStep,160,687643,0.0-160.0
2,"[0,1]","[3,2]","[1,0]","[true,true,true,true]",0,3,True,"[0.6695720859051721,0.7498304850723767,0.75,0.75]",False,False,dawsTwoStep,161,693052,0.0-161.0
2,"[0,1]","[0,1]","[2,3]","[true,true,true,false]",0,1,True,"[0.6581378480392827,0.7450462124186366,0.7315372387074756,0.75]",True,True,dawsTwoStep,162,697272,0.0-162.0
2,"[1,0]","[0,1]","[2,3]","[false,false,true,true]",1,2,True,"[0.7161300261890772,0.75,0.75,0.7355842473198855]",True,True,dawsTwoStep,163,700441,0.0-163.0
2,"[1,0]","[0,1]","[3,2]","[false,true,true,true]",1,3,True,"[0.7141654775677576,0.7467671264502953,0.7235867462788343,0.75]",True,True,dawsTwoStep,164,703391,0.0-164.0
2,"[0,1]","[1,0]","[2,3]","[true,false,true,true]",0,0,True,"[0.6849279738032925,0.7340180581846213,0.7463075244710293,0.740306000999806]",True,True,dawsTwoStep,165,706651,0.0-165.0
2,"[1,0]","[0,1]","[1,0]","[true,false,false,true]",1,1,False,"[0.6215138659389997,0.7439349817979095,0.75,0.7382567999055346]",True,False,dawsTwoStep,166,710648,0.0-166.0
2,"[1,0]","[0,1]","[3,2]","[false,false,false,true]",1,2,False,"[0.620025646288166,0.7151629780442009,0.75,0.7272281634196592]",True,True,dawsTwoStep,167,714315,0.0-167.0
2,"[0,1]","[1,0]","[3,2]","[true,true,true,true]",0,0,True,"[0.6192283688281073,0.7175112043268236,0.75,0.7247549215322612]",True,True,dawsTwoStep,168,718126,0.0-168.0
2,"[0,1]","[1,0]","[3,2]","[true,true,false,true]",0,1,True,"[0.6109954464179753,0.7170917247559818,0.75,0.6727713429281716]",True,True,dawsTwoStep,169,723315,0.0-169.0
2,"[0,1]","[0,1]","[3,2]","[false,true,false,true]",0,1,True,"[0.6114604114939508,0.7485437165310557,0.75,0.6621232145818148]",True,True,dawsTwoStep,170,728937,0.0-170.0
2,"[0,1]","[0,1]","[0,1]","[true,true,true,false]",1,0,True,"[0.6206866161194072,0.7181404211547044,0.75,0.6902486530787681]",True,False,dawsTwoStep,171,754646,0.0-171.0
2,"[1,0]","[1,0]","[2,3]","[false,false,false,true]",0,0,False,"[0.6512762452647216,0.692411641587708,0.75,0.6662233028914457]",True,True,dawsTwoStep,172,761931,0.0-172.0
2,"[1,0]","[1,0]","[3,2]","[true,true,false,true]",0,1,True,"[0.6433343299316431,0.698057137686789,0.7318055364608774,0.6766979807377334]",True,True,dawsTwoStep,173,765772,0.0-173.0
2,"[1,0]","[1,0]","[0,1]","[true,true,false,false]",0,0,True,"[0.6159098997405784,0.6848619843703558,0.722334799961875,0.6533961993958209]",True,False,dawsTwoStep,174,769767,0.0-174.0
2,"[1,0]","[1,0]","[0,1]","[false,true,false,true]",0,0,False,"[0.615203328737896,0.6681300042648122,0.75,0.6518803704253159]",True,False,dawsTwoStep,175,772868,0.0-175.0
2,"[0,1]","[1,0]","[0,1]","[false,true,true,true]",1,0,False,"[0.6421050572012351,0.6955228423336242,0.75,0.6409570845755128]",True,False,dawsTwoStep,176,775547,0.0-176.0
2,"[0,1]","[1,0]","[1,0]","[false,true,true,false]",1,0,False,"[0.5954908417738255,0.6944168563134502,0.75,0.6638320345322856]",True,False,dawsTwoStep,177,778407,0.0-177.0
2,"[1,0]","[0,1]","[2,3]","[true,true,true,false]",0,0,True,"[0.5585272836714887,0.6781878664610697,0.75,0.6777121992489835]",True,True,dawsTwoStep,178,781965,0.0-178.0
2,"[1,0]","[0,1]","[2,3]","[true,true,true,true]",0,0,True,"[0.584687819282092,0.6727907066996094,0.7477529604254817,0.6657673131438593]",True,True,dawsTwoStep,179,785157,0.0-179.0
2,"[1,0]","[3,2]","[3,2]","[true,false,true,true]",0,3,True,"[0.6093120331934793,0.7156556798863308,0.75,0.6470895409148821]",False,True,dawsTwoStep,180,789162,0.0-180.0
2,"[1,0]","[0,1]","[1,0]","[false,false,true,true]",0,0,False,"[0.6127927296964454,0.729352203702774,0.7382760881497193,0.6644095946493291]",True,False,dawsTwoStep,181,793245,0.0-181.0
2,"[0,1]","[1,0]","[0,1]","[true,false,true,true]",1,1,False,"[0.5939894364554642,0.7281761932000347,0.712340095520227,0.6427460402825466]",True,False,dawsTwoStep,182,799478,0.0-182.0
2,"[1,0]","[2,3]","[0,1]","[false,true,true,true]",0,3,True,"[0.5850453425865195,0.723057540949644,0.6858418280265074,0.6342778280514916]",False,False,dawsTwoStep,183,803564,0.0-183.0
2,"[1,0]","[0,1]","[2,3]","[true,true,true,true]",0,0,True,"[0.5283118910887038,0.7485293644412786,0.6627938590802586,0.6625315190882985]",True,True,dawsTwoStep,184,807647,0.0-184.0
2,"[1,0]","[2,3]","[3,2]","[true,false,true,true]",0,3,True,"[0.5287249978732662,0.75,0.6580675711693439,0.629261719475826]",False,True,dawsTwoStep,185,811975,0.0-185.0
2,"[1,0]","[2,3]","[2,3]","[false,true,true,true]",0,3,True,"[0.5525712980997799,0.75,0.6529921852850236,0.6880938191992187]",False,True,dawsTwoStep,186,815818,0.0-186.0
2,"[0,1]","[0,1]","[2,3]","[true,true,true,true]",1,2,True,"[0.5536045351719239,0.75,0.6818324920023379,0.7033939770467065]",True,True,dawsTwoStep,187,820050,0.0-187.0
2,"[0,1]","[1,0]","[3,2]","[false,true,true,false]",1,2,True,"[0.5892810163444411,0.7420526776347707,0.6715726826222895,0.7059239670244037]",True,True,dawsTwoStep,188,823813,0.0-188.0
2,"[0,1]","[0,1]","[3,2]","[true,true,true,true]",1,2,True,"[0.6343492085792433,0.75,0.6519917629911193,0.7134604630812258]",True,True,dawsTwoStep,189,828157,0.0-189.0
2,"[1,0]","[0,1]","[3,2]","[false,true,true,true]",0,1,True,"[0.6862978654257723,0.7412354268267081,0.6597620465197157,0.7214139626918538]",True,True,dawsTwoStep,190,833554,0.0-190.0
2,"[0,1]","[0,1]","[0,1]","[true,true,false,true]",1,0,True,"[0.7099085842033136,0.7349925863860262,0.6529624622162524,0.7298652285702294]",True,False,dawsTwoStep,191,839839,0.0-191.0
2,"[1,0]","[1,0]","[2,3]","[true,false,false,true]",1,2,False,"[0.6667897266520463,0.717507161457323,0.6453433273597565,0.7352985062200643]",True,True,dawsTwoStep,192,915465,0.0-192.0
2,"[1,0]","[2,3]","[3,2]","[true,false,true,true]",1,3,True,"[0.6772633117566013,0.7119074795846494,0.6933750214742201,0.7313153960251735]",False,True,dawsTwoStep,193,918853,0.0-193.0
2,"[0,1]","[1,0]","[2,3]","[false,true,false,false]",0,0,False,"[0.678303859119902,0.7060756532161768,0.6857065062618835,0.7359596377540764]",True,True,dawsTwoStep,194,922606,0.0-194.0
2,"[1,0]","[3,2]","[1,0]","[true,true,true,false]",1,0,True,"[0.672367878943244,0.6982193787981152,0.6314642000219831,0.702016264689221]",False,False,dawsTwoStep,195,926435,0.0-195.0
2,"[1,0]","[0,1]","[2,3]","[true,true,false,false]",1,2,False,"[0.7221650640517157,0.7070164909898046,0.6235134702625753,0.6893299042403715]",True,True,dawsTwoStep,196,936834,0.0-196.0
2,"[1,0]","[2,3]","[2,3]","[true,true,true,true]",0,3,True,"[0.7245860140585143,0.7001385497850824,0.656939339122937,0.6934517774048503]",False,True,dawsTwoStep,197,976317,0.0-197.0
2,"[1,0]","[3,2]","[1,0]","[true,false,false,true]",0,3,True,"[0.7232362403977585,0.7004523995898911,0.5883847450041897,0.7185746963834642]",False,False,dawsTwoStep,198,984262,0.0-198.0
2,"[1,0]","[2,3]","[2,3]","[true,false,false,true]",1,2,False,"[0.7075447370827472,0.6555100675911425,0.5757088976235649,0.7497446640904167]",False,True,dawsTwoStep,199,990203,0.0-199.0
3,"[1,0]","[2,3]","[2,3]","[true,true,false,false]",0,3,False,"[0.75,0.6870006118799494,0.6038616990023973,0.6388801569716446]",False,True,dawsTwoStep,0,238084,0.0-0.0
3,"[1,0]","[2,3]","[3,2]","[false,false,true,true]",0,2,True,"[0.736070832204273,0.6576419095173117,0.6176155457329285,0.62844488162477]",False,True,dawsTwoStep,1,244832,0.0-1.0
3,"[0,1]","[1,0]","[2,3]","[true,true,true,true]",0,1,True,"[0.7283848259641129,0.6465920500830619,0.6075609859773404,0.6576610983772025]",True,True,dawsTwoStep,2,251288,0.0-2.0
3,"[0,1]","[0,1]","[3,2]","[true,true,true,true]",0,0,True,"[0.7333173631257273,0.6378209957956679,0.5951602656714293,0.6823700190982702]",True,True,dawsTwoStep,3,255437,0.0-3.0
3,"[1,0]","[0,1]","[3,2]","[true,true,true,false]",1,3,False,"[0.7368654703939279,0.6504993586766937,0.621881386817173,0.7497850398772969]",True,True,dawsTwoStep,4,260111,0.0-4.0
3,"[1,0]","[0,1]","[3,2]","[false,false,true,true]",1,3,True,"[0.7250118975769166,0.6434156094170099,0.6055054154053761,0.75]",True,True,dawsTwoStep,5,263762,0.0-5.0
3,"[0,1]","[2,3]","[3,2]","[true,false,true,true]",0,2,True,"[0.7396335291305909,0.634140439864015,0.6068374208288225,0.75]",False,True,dawsTwoStep,6,267758,0.0-6.0
3,"[0,1]","[2,3]","[3,2]","[true,true,true,false]",0,2,True,"[0.75,0.6679322423680382,0.6427645701833675,0.75]",False,True,dawsTwoStep,7,271509,0.0-7.0
3,"[0,1]","[1,0]","[3,2]","[false,true,true,true]",0,1,True,"[0.7444096739080347,0.6416835871057263,0.6487871209849525,0.7140281827252352]",True,True,dawsTwoStep,8,275636,0.0-8.0
3,"[0,1]","[0,1]","[3,2]","[true,false,true,true]",0,0,True,"[0.75,0.6475903579118114,0.6210563655796055,0.660028068363361]",True,True,dawsTwoStep,9,281336,0.0-9.0
3,"[1,0]","[1,0]","[0,1]","[true,false,true,false]",1,0,True,"[0.75,0.6548634605095549,0.619366873457073,0.6787601393322038]",True,False,dawsTwoStep,10,286417,0.0-10.0
3,"[0,1]","[0,1]","[1,0]","[true,true,false,false]",0,1,True,"[0.7484620056015553,0.6917992535365431,0.5977702087948576,0.6969376744794061]",True,False,dawsTwoStep,11,290468,0.0-11.0
3,"[0,1]","[1,0]","[3,2]","[false,true,false,true]",0,1,True,"[0.75,0.6450664066430543,0.597852154264199,0.7254233713772813]",True,True,dawsTwoStep,12,294437,0.0-12.0
3,"[0,1]","[1,0]","[3,2]","[true,false,true,true]",0,0,True,"[0.7156054543309325,0.6154832846558163,0.6215533707980085,0.7201838853461426]",True,True,dawsTwoStep,13,298401,0.0-13.0
3,"[0,1]","[1,0]","[2,3]","[true,true,false,true]",0,1,True,"[0.7170388945958096,0.6218184775037567,0.6224440966933186,0.7321967990583377]",True,True,dawsTwoStep,14,302100,0.0-14.0
3,"[1,0]","[1,0]","[1,0]","[false,true,true,false]",1,0,False,"[0.6808091678199586,0.5925299222742865,0.5834856904676351,0.7126735310039506]",True,False,dawsTwoStep,15,305892,0.0-15.0
3,"[1,0]","[1,0]","[2,3]","[true,false,false,true]",1,2,False,"[0.7161949526638275,0.6305261708800709,0.5854826297587619,0.6915435280441248]",True,True,dawsTwoStep,16,310102,0.0-16.0
3,"[1,0]","[3,2]","[3,2]","[true,true,true,true]",1,2,True,"[0.7109314074356827,0.6729524770600195,0.5434643393816057,0.7072619007617797]",False,True,dawsTwoStep,17,313553,0.0-17.0
3,"[1,0]","[1,0]","[2,3]","[true,false,true,false]",0,1,False,"[0.7075278690334501,0.75,0.5925142691971093,0.7295150827696992]",True,True,dawsTwoStep,18,319799,0.0-18.0
3,"[1,0]","[1,0]","[2,3]","[true,true,true,true]",0,1,True,"[0.7390583877044683,0.75,0.6327861439355597,0.6988731608817]",True,True,dawsTwoStep,19,323798,0.0-19.0
3,"[0,1]","[3,2]","[3,2]","[true,true,true,false]",1,2,True,"[0.75,0.75,0.6006493643142702,0.6744715106555839]",False,True,dawsTwoStep,20,327513,0.0-20.0
3,"[1,0]","[0,1]","[1,0]","[true,false,false,false]",0,0,True,"[0.7331425936881055,0.75,0.5948265307992517,0.6803840295965362]",True,False,dawsTwoStep,21,331410,0.0-21.0
3,"[1,0]","[2,3]","[3,2]","[true,true,true,true]",0,3,True,"[0.7416329639711585,0.7228402888340796,0.625454993237042,0.6922081345710412]",False,True,dawsTwoStep,22,335362,0.0-22.0
3,"[1,0]","[2,3]","[2,3]","[true,true,true,true]",0,3,True,"[0.75,0.7035990486147983,0.6347310634169024,0.6808760422009679]",False,True,dawsTwoStep,23,339124,0.0-23.0
3,"[1,0]","[2,3]","[0,1]","[true,true,true,true]",0,3,True,"[0.7478136836262135,0.7000364569344231,0.6756631588227586,0.6810310101850354]",False,False,dawsTwoStep,24,342456,0.0-24.0
3,"[0,1]","[1,0]","[3,2]","[true,false,false,true]",1,3,True,"[0.69422703892754,0.6787729051282024,0.6508011700406231,0.6609974456467802]",True,True,dawsTwoStep,25,345841,0.0-25.0
3,"[1,0]","[1,0]","[3,2]","[true,false,true,true]",0,1,False,"[0.6619484845645262,0.6530978911546252,0.6514772107643004,0.6420623827734635]",True,True,dawsTwoStep,26,349530,0.0-26.0
3,"[1,0]","[0,1]","[1,0]","[false,true,false,true]",0,0,False,"[0.6410651206090138,0.6446384544717408,0.6318995911664234,0.700367541373097]",True,False,dawsTwoStep,27,353058,0.0-27.0
3,"[1,0]","[0,1]","[2,3]","[false,true,false,true]",0,0,False,"[0.6463212938733041,0.6179600154926385,0.6582217664187883,0.6558939095999963]",True,True,dawsTwoStep,28,356454,0.0-28.0
3,"[1,0]","[1,0]","[2,3]","[true,true,true,false]",0,1,True,"[0.6702034489930648,0.613873709251054,0.6485403623819861,0.68320594229878]",True,True,dawsTwoStep,29,360193,0.0-29.0
3,"[1,0]","[0,1]","[3,2]","[false,true,true,true]",0,1,True,"[0.6527375668367441,0.5943964779345621,0.6777599052454597,0.6799774348875467]",True,True,dawsTwoStep,30,364135,0.0-30.0
3,"[0,1]","[2,3]","[1,0]","[false,true,false,true]",1,1,True,"[0.649852636856835,0.6238292883568373,0.6695660209070631,0.7105009449738378]",False,False,dawsTwoStep,31,367514,0.0-31.0
3,"[1,0]","[1,0]","[2,3]","[true,false,true,true]",0,1,False,"[0.6492594394869267,0.6473483909605594,0.6802197608039162,0.6736072667509853]",True,True,dawsTwoStep,32,371571,0.0-32.0
3,"[1,0]","[1,0]","[2,3]","[false,true,true,true]",1,2,True,"[0.6558807321853489,0.6361219536763687,0.6940172671903042,0.6399544899279921]",True,True,dawsTwoStep,33,375832,0.0-33.0
3,"[0,1]","[1,0]","[2,3]","[false,true,true,false]",0,1,True,"[0.6446371024298797,0.5999584780551878,0.7140345085405253,0.6368439351694832]",True,True,dawsTwoStep,34,381077,0.0-34.0
3,"[0,1]","[0,1]","[2,3]","[false,false,true,true]",0,0,False,"[0.6555677562686474,0.5941897135922083,0.7249187851508356,0.6647529931333618]",True,True,dawsTwoStep,35,384865,0.0-35.0
3,"[1,0]","[2,3]","[1,0]","[true,false,true,true]",1,1,False,"[0.6625899591786536,0.6046712381330644,0.7183873012486951,0.6842488394052795]",False,False,dawsTwoStep,36,389564,0.0-36.0
3,"[0,1]","[1,0]","[3,2]","[true,false,true,false]",0,1,False,"[0.6600880121389153,0.6318586794434204,0.7117793029815989,0.6825157368635822]",True,True,dawsTwoStep,37,392919,0.0-37.0
3,"[0,1]","[0,1]","[2,3]","[true,true,false,true]",0,1,True,"[0.6515151722598435,0.6277760306538642,0.704203642153259,0.658172632224811]",True,True,dawsTwoStep,38,398291,0.0-38.0
3,"[1,0]","[0,1]","[1,0]","[false,true,true,true]",1,0,False,"[0.6584152638206661,0.6033009022121262,0.6767541188568305,0.6311632536311791]",True,False,dawsTwoStep,39,404253,0.0-39.0
3,"[1,0]","[0,1]","[1,0]","[true,true,true,true]",1,1,True,"[0.6385017666939796,0.600445057146435,0.710225679490559,0.6590242753312529]",True,False,dawsTwoStep,40,407374,0.0-40.0
3,"[1,0]","[1,0]","[2,3]","[true,true,false,true]",1,2,False,"[0.6543523770154143,0.5795846404749811,0.7107471250844023,0.6740622413043084]",True,True,dawsTwoStep,41,411776,0.0-41.0
3,"[1,0]","[1,0]","[3,2]","[true,true,true,true]",1,3,True,"[0.6788014077384281,0.6307131023224349,0.671409046236973,0.6788882296068633]",True,True,dawsTwoStep,42,414968,0.0-42.0
3,"[1,0]","[0,1]","[2,3]","[false,true,false,true]",1,3,True,"[0.6605312729550576,0.6782398104846803,0.6510935854564568,0.6714968350534548]",True,True,dawsTwoStep,43,418289,0.0-43.0
3,"[1,0]","[3,2]","[3,2]","[false,true,true,false]",1,3,False,"[0.6219661566073021,0.7040378728974581,0.6674249866994417,0.6409667883205288]",False,True,dawsTwoStep,44,421775,0.0-44.0
3,"[0,1]","[3,2]","[3,2]","[false,false,false,true]",0,3,True,"[0.6228883678210153,0.6782189685600782,0.6329065363262077,0.6541104077885143]",False,True,dawsTwoStep,45,426198,0.0-45.0
3,"[0,1]","[0,1]","[2,3]","[false,true,false,true]",0,0,False,"[0.642239041237038,0.6284703741695712,0.6552281764294485,0.6315195200695413]",True,True,dawsTwoStep,46,430095,0.0-46.0
3,"[0,1]","[2,3]","[3,2]","[true,true,false,true]",0,3,True,"[0.6428761025822535,0.6504810079397367,0.6729744451976784,0.6530407052918854]",False,True,dawsTwoStep,47,433594,0.0-47.0
3,"[1,0]","[1,0]","[3,2]","[true,true,true,true]",1,3,True,"[0.642519319014518,0.6406460321804794,0.67725819158036,0.6435569149389317]",True,True,dawsTwoStep,48,437231,0.0-48.0
3,"[1,0]","[0,1]","[3,2]","[false,false,true,false]",1,3,False,"[0.6760927297546018,0.6603929914508663,0.6652881902620867,0.658852542342565]",True,True,dawsTwoStep,49,440743,0.0-49.0
3,"[1,0]","[0,1]","[1,0]","[true,false,false,true]",1,1,False,"[0.6963198864954787,0.693390076032753,0.6846859280229578,0.6545742742684534]",True,False,dawsTwoStep,50,444320,0.0-50.0
3,"[1,0]","[3,2]","[0,1]","[true,true,true,true]",0,3,True,"[0.719897286119862,0.714421660908305,0.708436611740058,0.6688517898128286]",False,False,dawsTwoStep,51,447998,0.0-51.0
3,"[1,0]","[1,0]","[2,3]","[true,false,true,true]",0,1,False,"[0.75,0.6556763422867284,0.6627731937733053,0.635503770838257]",True,True,dawsTwoStep,52,452452,0.0-52.0
3,"[1,0]","[1,0]","[2,3]","[false,true,false,true]",0,1,True,"[0.7293261070434269,0.7047617438517563,0.649966720083386,0.6622210025451745]",True,True,dawsTwoStep,53,455936,0.0-53.0
3,"[0,1]","[3,2]","[3,2]","[true,true,true,true]",1,3,True,"[0.7281221343036762,0.6714521467286035,0.6532893841437563,0.6630688851053428]",False,True,dawsTwoStep,54,459576,0.0-54.0
3,"[0,1]","[3,2]","[0,1]","[true,false,true,true]",1,0,True,"[0.7133900371157129,0.6951641696131619,0.6366902780592809,0.6431093738945414]",False,False,dawsTwoStep,55,466615,0.0-55.0
3,"[0,1]","[1,0]","[2,3]","[true,false,true,false]",1,3,False,"[0.6859706980159603,0.6559333605256333,0.629123744649352,0.6357864659116881]",True,True,dawsTwoStep,56,471065,0.0-56.0
3,"[1,0]","[0,1]","[2,3]","[true,false,true,true]",0,0,True,"[0.6818619329871352,0.6573320050054101,0.6395466993874453,0.6538707392762849]",True,True,dawsTwoStep,57,474664,0.0-57.0
3,"[0,1]","[0,1]","[3,2]","[false,true,true,true]",1,3,True,"[0.6661118839969925,0.6234103775828098,0.6512371885390071,0.6803495330276391]",True,True,dawsTwoStep,58,478437,0.0-58.0
3,"[1,0]","[1,0]","[1,0]","[true,false,true,true]",0,1,False,"[0.6449670739621939,0.6230772341544475,0.6511438558809081,0.6845298577493297]",True,False,dawsTwoStep,59,482777,0.0-59.0
3,"[0,1]","[0,1]","[2,3]","[false,true,false,true]",1,3,True,"[0.6728615642479087,0.5906690182399803,0.6295026026522283,0.6800037348823821]",True,True,dawsTwoStep,60,486314,0.0-60.0
3,"[1,0]","[1,0]","[1,0]","[true,true,false,true]",0,0,True,"[0.6656683348017408,0.6090594741326784,0.6505719760890618,0.6666901076474187]",True,False,dawsTwoStep,61,490455,0.0-61.0
3,"[1,0]","[0,1]","[2,3]","[false,true,true,true]",0,0,False,"[0.6621810637046804,0.6121029064437187,0.6696883727214877,0.6055638450159697]",True,True,dawsTwoStep,62,493890,0.0-62.0
3,"[1,0]","[1,0]","[3,2]","[true,true,true,true]",0,1,True,"[0.6639167277178365,0.6625948076927355,0.6704745553232546,0.6014224090639929]",True,True,dawsTwoStep,63,497184,0.0-63.0
3,"[0,1]","[3,2]","[2,3]","[true,true,true,false]",1,2,True,"[0.7162584773509394,0.6653708320645704,0.6664533965826785,0.5630968227667219]",False,True,dawsTwoStep,64,501151,0.0-64.0
3,"[1,0]","[2,3]","[3,2]","[true,true,true,false]",0,2,True,"[0.7347256622614099,0.6933088507823834,0.6678887996449644,0.5411631923456853]",False,True,dawsTwoStep,65,504676,0.0-65.0
3,"[0,1]","[2,3]","[3,2]","[true,true,false,true]",1,2,False,"[0.7480249426025726,0.7118403221919806,0.6563362032148696,0.5287073155565883]",False,True,dawsTwoStep,66,508212,0.0-66.0
3,"[0,1]","[1,0]","[2,3]","[false,true,true,false]",1,3,False,"[0.7326263930308994,0.7016777150914976,0.6566633616984237,0.4992851587947886]",True,True,dawsTwoStep,67,511449,0.0-67.0
3,"[1,0]","[0,1]","[1,0]","[false,true,false,true]",0,0,False,"[0.7313131548705066,0.6898677850958788,0.6795581314048583,0.5057028545936096]",True,False,dawsTwoStep,68,514979,0.0-68.0
3,"[0,1]","[1,0]","[0,1]","[true,false,true,false]",1,1,False,"[0.7489812915076233,0.6659242631872966,0.6788791962541078,0.5230164604528738]",True,False,dawsTwoStep,69,518267,0.0-69.0
3,"[1,0]","[0,1]","[0,1]","[false,false,true,false]",0,1,False,"[0.75,0.6476125431257749,0.6932202045266597,0.532984059102158]",True,False,dawsTwoStep,70,521675,0.0-70.0
3,"[0,1]","[0,1]","[3,2]","[true,true,false,false]",1,3,False,"[0.75,0.6299766436828482,0.7058042647100373,0.5279846640278476]",True,True,dawsTwoStep,71,525176,0.0-71.0
3,"[0,1]","[2,3]","[2,3]","[true,false,true,false]",1,2,True,"[0.7421716858211876,0.6436297641341151,0.7420197953174303,0.5275119878373074]",False,True,dawsTwoStep,72,529035,0.0-72.0
3,"[0,1]","[0,1]","[3,2]","[true,true,true,true]",1,2,True,"[0.7373873179443245,0.6415964980634988,0.7480973654480572,0.5467882062762738]",True,True,dawsTwoStep,73,532471,0.0-73.0
3,"[0,1]","[1,0]","[2,3]","[true,false,true,true]",1,2,True,"[0.7422418861268415,0.6477640300452956,0.75,0.5388122201448675]",True,True,dawsTwoStep,74,535867,0.0-74.0
3,"[0,1]","[3,2]","[2,3]","[true,false,true,true]",1,2,True,"[0.6927703767988482,0.6325291576725706,0.75,0.5324889537230014]",False,True,dawsTwoStep,75,539269,0.0-75.0
3,"[1,0]","[0,1]","[1,0]","[true,true,true,true]",0,0,True,"[0.6616149114362708,0.657841826008056,0.75,0.5168271804553508]",True,False,dawsTwoStep,76,544211,0.0-76.0
3,"[0,1]","[0,1]","[3,2]","[false,true,true,false]",1,2,True,"[0.6468026096164348,0.6427517698300267,0.7102554153605104,0.47883969384290803]",True,True,dawsTwoStep,77,547810,0.0-77.0
3,"[1,0]","[0,1]","[2,3]","[true,true,true,false]",0,0,True,"[0.6714377234455295,0.6438449125403511,0.7028756521140189,0.48362457188004687]",True,True,dawsTwoStep,78,551554,0.0-78.0
3,"[1,0]","[0,1]","[2,3]","[true,false,true,false]",0,0,True,"[0.6850355275705658,0.6514271923203537,0.7277773407793836,0.4191603089290922]",True,True,dawsTwoStep,79,555121,0.0-79.0
3,"[0,1]","[1,0]","[3,2]","[true,true,true,true]",1,2,True,"[0.7231155353917282,0.649313081635343,0.7310300191349788,0.4467267757533938]",True,True,dawsTwoStep,80,558789,0.0-80.0
3,"[0,1]","[0,1]","[1,0]","[false,false,false,false]",0,0,False,"[0.7184828985096061,0.670110213229465,0.749434320041865,0.4934880112905316]",True,False,dawsTwoStep,81,578031,0.0-81.0
3,"[1,0]","[0,1]","[0,1]","[true,true,false,false]",1,1,True,"[0.7237059930103797,0.6434320495435404,0.75,0.4577291018826389]",True,False,dawsTwoStep,82,581170,0.0-82.0
3,"[0,1]","[2,3]","[1,0]","[false,false,true,false]",0,2,True,"[0.7227579242096941,0.6515625107127899,0.7420816304621997,0.43958558942870496]",False,False,dawsTwoStep,83,585344,0.0-83.0
3,"[1,0]","[2,3]","[3,2]","[true,true,true,false]",1,2,True,"[0.7246586035751018,0.6808131507442715,0.75,0.41977321496774356]",False,True,dawsTwoStep,84,589001,0.0-84.0
3,"[1,0]","[0,1]","[2,3]","[false,true,false,true]",1,2,False,"[0.7043576040589907,0.7132021600658064,0.75,0.37510770763045065]",True,True,dawsTwoStep,85,592228,0.0-85.0
3,"[1,0]","[3,2]","[0,1]","[true,true,true,false]",1,0,True,"[0.6496388196405414,0.7464143528641298,0.7463367663669304,0.36603481300744967]",False,False,dawsTwoStep,86,595921,0.0-86.0
3,"[1,0]","[3,2]","[2,3]","[true,false,false,false]",1,2,False,"[0.6658632559639516,0.7318585082646987,0.75,0.33250844501764076]",False,True,dawsTwoStep,87,599529,0.0-87.0
3,"[1,0]","[1,0]","[0,1]","[true,true,true,false]",1,0,True,"[0.6241483351580407,0.7127053078178925,0.725805792571282,0.37177259128482665]",True,False,dawsTwoStep,88,602923,0.0-88.0
3,"[1,0]","[3,2]","[3,2]","[false,false,true,true]",1,2,True,"[0.6290574236225172,0.6945047410543923,0.704807304914255,0.38433383230608253]",False,True,dawsTwoStep,89,606403,0.0-89.0
3,"[0,1]","[0,1]","[0,1]","[false,false,true,false]",0,0,False,"[0.6401585692599037,0.6996395330145965,0.7079306610893202,0.3728781438607705]",True,False,dawsTwoStep,90,609946,0.0-90.0
3,"[1,0]","[1,0]","[3,2]","[false,false,true,true]",1,2,True,"[0.6257023454108117,0.6646328108401338,0.7132424847317467,0.3333725416353116]",True,True,dawsTwoStep,91,614133,0.0-91.0
3,"[0,1]","[0,1]","[2,3]","[false,false,false,false]",0,1,False,"[0.6023945934500936,0.6743967610475798,0.6847680877733536,0.39201653843124046]",True,True,dawsTwoStep,92,617513,0.0-92.0
3,"[0,1]","[1,0]","[3,2]","[false,true,false,false]",0,1,True,"[0.6175582193979005,0.6417094791499913,0.6763635467228996,0.41228015373881305]",True,True,dawsTwoStep,93,621124,0.0-93.0
3,"[1,0]","[1,0]","[2,3]","[false,true,true,true]",1,2,True,"[0.6581153972771937,0.6464915115312864,0.6664550295878046,0.38058233775453115]",True,True,dawsTwoStep,94,624403,0.0-94.0
3,"[1,0]","[3,2]","[2,3]","[false,false,false,true]",1,2,False,"[0.655569386877951,0.6755850278743343,0.6129633240646395,0.34929724053462047]",False,True,dawsTwoStep,95,627648,0.0-95.0
3,"[1,0]","[1,0]","[3,2]","[true,true,true,false]",1,2,True,"[0.6817162437230728,0.6513706832404539,0.5680360253937956,0.3753794037051321]",True,True,dawsTwoStep,96,630965,0.0-96.0
3,"[1,0]","[0,1]","[3,2]","[true,false,false,false]",1,2,False,"[0.6871835729316128,0.6583649362442547,0.5457605426409188,0.3750996322729685]",True,True,dawsTwoStep,97,634433,0.0-97.0
3,"[0,1]","[1,0]","[0,1]","[true,true,false,false]",0,1,True,"[0.6889780770339098,0.672431773627395,0.559098907125653,0.41353263201463003]",True,False,dawsTwoStep,98,637855,0.0-98.0
3,"[0,1]","[1,0]","[3,2]","[false,false,true,true]",0,1,False,"[0.6634702414033053,0.6855956498980328,0.6018001607592027,0.4093556319411744]",True,True,dawsTwoStep,99,641475,0.0-99.0
3,"[0,1]","[1,0]","[0,1]","[true,true,false,false]",0,1,True,"[0.6730782834813207,0.7078911336523981,0.579574253349153,0.40024302204996137]",True,False,dawsTwoStep,100,644633,0.0-100.0
3,"[1,0]","[0,1]","[3,2]","[true,true,true,true]",1,2,True,"[0.6777851228985949,0.7387470621166267,0.5700429340033248,0.40241791963042794]",True,True,dawsTwoStep,101,647916,0.0-101.0
3,"[0,1]","[1,0]","[2,3]","[true,false,true,false]",0,1,False,"[0.7267076797903435,0.75,0.5667806505551107,0.42638885665897286]",True,True,dawsTwoStep,102,651213,0.0-102.0
3,"[0,1]","[1,0]","[1,0]","[true,true,false,false]",0,1,True,"[0.706213045483661,0.75,0.5689359811363132,0.41031962459529253]",True,False,dawsTwoStep,103,656389,0.0-103.0
3,"[0,1]","[2,3]","[0,1]","[true,true,false,false]",0,3,False,"[0.7063922478615119,0.75,0.5742328483202179,0.40523266137472014]",False,False,dawsTwoStep,104,660652,0.0-104.0
3,"[1,0]","[3,2]","[2,3]","[false,true,true,false]",1,2,True,"[0.7080328470429957,0.7096581059188964,0.5990132096888601,0.39244536148046016]",False,True,dawsTwoStep,105,663973,0.0-105.0
3,"[0,1]","[0,1]","[3,2]","[true,true,false,true]",1,2,False,"[0.6674411222826524,0.75,0.6099238183743486,0.3701062879748754]",True,True,dawsTwoStep,106,667809,0.0-106.0
3,"[0,1]","[0,1]","[2,3]","[true,true,true,true]",1,2,True,"[0.6977036801266913,0.6920701598677849,0.6268683920309565,0.3956367339020036]",True,True,dawsTwoStep,107,670858,0.0-107.0
3,"[0,1]","[1,0]","[1,0]","[false,true,true,false]",1,1,True,"[0.6659211473504129,0.6632631290425638,0.5511294182606393,0.3954706874614712]",True,False,dawsTwoStep,108,674430,0.0-108.0
3,"[1,0]","[0,1]","[0,1]","[false,true,false,false]",0,0,False,"[0.6948165249983775,0.6502549414827794,0.5882696138783425,0.3724762661845268]",True,False,dawsTwoStep,109,678151,0.0-109.0
3,"[0,1]","[0,1]","[3,2]","[true,true,true,false]",1,2,True,"[0.6910092724991003,0.672985954074632,0.6177213446004522,0.3605832499670422]",True,True,dawsTwoStep,110,681258,0.0-110.0
3,"[1,0]","[1,0]","[0,1]","[true,false,true,false]",0,1,False,"[0.7065983187423871,0.6397915602334627,0.596588180767669,0.3467879362581289]",True,False,dawsTwoStep,111,684645,0.0-111.0
3,"[1,0]","[1,0]","[2,3]","[true,true,true,false]",0,1,True,"[0.7438880776093821,0.6390329281780542,0.59530922640507,0.3186893263951789]",True,True,dawsTwoStep,112,688093,0.0-112.0
3,"[0,1]","[1,0]","[3,2]","[true,true,true,true]",1,2,True,"[0.744715396407849,0.6133284674342183,0.5723278813324096,0.3419632568278458]",True,True,dawsTwoStep,113,691573,0.0-113.0
3,"[0,1]","[0,1]","[2,3]","[true,true,false,false]",1,2,False,"[0.7287660341687061,0.5915734403049739,0.5654125694171229,0.3344096491403213]",True,True,dawsTwoStep,114,694748,0.0-114.0
3,"[0,1]","[2,3]","[0,1]","[true,true,false,true]",1,1,True,"[0.7081942132243769,0.602608237850459,0.5957827337750163,0.3675124028538229]",False,False,dawsTwoStep,115,700114,0.0-115.0
3,"[0,1]","[3,2]","[2,3]","[true,true,true,true]",1,2,True,"[0.7448940442226488,0.575635939304711,0.6191175567201602,0.35925804299872355]",False,True,dawsTwoStep,116,703552,0.0-116.0
3,"[0,1]","[2,3]","[3,2]","[true,true,false,true]",1,2,False,"[0.7442406679369451,0.5816760662341922,0.6191627525717602,0.3430165275392091]",False,True,dawsTwoStep,117,706973,0.0-117.0
3,"[1,0]","[1,0]","[2,3]","[true,true,true,true]",0,1,True,"[0.75,0.576832269633452,0.6326188086830685,0.3197134949222994]",True,True,dawsTwoStep,118,710756,0.0-118.0
3,"[0,1]","[0,1]","[3,2]","[true,true,false,false]",1,2,False,"[0.75,0.6044819004952726,0.6629980066481009,0.3500216422999305]",True,True,dawsTwoStep,119,714282,0.0-119.0
3,"[0,1]","[0,1]","[3,2]","[true,true,true,false]",1,2,True,"[0.75,0.623822457429187,0.6369341403349397,0.34425036483519417]",True,True,dawsTwoStep,120,717643,0.0-120.0
3,"[1,0]","[2,3]","[3,2]","[true,false,false,false]",0,3,False,"[0.75,0.6683166837295023,0.6156213116658551,0.3964204656473376]",False,True,dawsTwoStep,121,721478,0.0-121.0
3,"[0,1]","[3,2]","[2,3]","[true,true,true,true]",1,2,True,"[0.75,0.6592674483700399,0.6455805136215005,0.385973566325313]",False,True,dawsTwoStep,122,724980,0.0-122.0
3,"[0,1]","[0,1]","[0,1]","[true,true,true,false]",1,1,True,"[0.75,0.6831326684088411,0.6522911339941873,0.380014254056885]",True,False,dawsTwoStep,123,729117,0.0-123.0
3,"[0,1]","[2,3]","[3,2]","[true,true,false,true]",1,2,False,"[0.75,0.6477243852678037,0.6442222081271546,0.34556179932280456]",False,True,dawsTwoStep,124,732633,0.0-124.0
3,"[1,0]","[1,0]","[2,3]","[true,true,true,false]",1,2,True,"[0.7202214727162431,0.6367059946741814,0.7021424410814657,0.3419721591761994]",True,True,dawsTwoStep,125,737506,0.0-125.0
3,"[1,0]","[1,0]","[0,1]","[false,false,true,false]",1,0,False,"[0.7248738948177924,0.5870392647149005,0.6940889267346869,0.36872093189000466]",True,False,dawsTwoStep,126,740976,0.0-126.0
3,"[1,0]","[1,0]","[2,3]","[false,true,true,false]",1,2,True,"[0.7094152323721874,0.6213121516152064,0.6792321916951152,0.40540524447712456]",True,True,dawsTwoStep,127,744537,0.0-127.0
3,"[1,0]","[1,0]","[2,3]","[true,true,true,false]",1,2,True,"[0.75,0.627064986525783,0.6574864963699338,0.37087152356484737]",True,True,dawsTwoStep,128,748226,0.0-128.0
3,"[0,1]","[0,1]","[3,2]","[false,false,true,false]",0,1,False,"[0.75,0.6259076161627193,0.6807274837030732,0.36336389056841095]",True,True,dawsTwoStep,129,751980,0.0-129.0
3,"[1,0]","[0,1]","[2,3]","[true,true,true,true]",1,2,True,"[0.75,0.6322372623517087,0.6847920960944682,0.354829478823982]",True,True,dawsTwoStep,130,756053,0.0-130.0
3,"[0,1]","[1,0]","[3,2]","[true,true,true,false]",1,2,True,"[0.75,0.657821575861286,0.676401274535478,0.3792841342254495]",True,True,dawsTwoStep,131,760572,0.0-131.0
3,"[1,0]","[0,1]","[2,3]","[false,true,false,false]",1,2,False,"[0.75,0.6925681732020529,0.7154287446715133,0.35738399283488154]",True,True,dawsTwoStep,132,764353,0.0-132.0
3,"[1,0]","[3,2]","[0,1]","[true,true,true,true]",1,1,True,"[0.7201699221579556,0.7087664445203585,0.75,0.38675455542037646]",False,False,dawsTwoStep,133,767914,0.0-133.0
3,"[0,1]","[1,0]","[3,2]","[true,true,true,true]",0,1,True,"[0.7202518415305001,0.6945393170807191,0.7070731056141561,0.38262090707282226]",True,True,dawsTwoStep,134,772362,0.0-134.0
3,"[1,0]","[1,0]","[2,3]","[false,true,true,false]",0,1,True,"[0.7451496228548892,0.6771042664951605,0.6983053343755682,0.4074627748790496]",True,True,dawsTwoStep,135,776822,0.0-135.0
3,"[0,1]","[2,3]","[0,1]","[true,true,false,false]",0,2,False,"[0.7385377056621447,0.689885376481891,0.6706654434555358,0.4367056834311205]",False,False,dawsTwoStep,136,781362,0.0-136.0
3,"[1,0]","[0,1]","[1,0]","[true,true,false,false]",0,1,True,"[0.75,0.75,0.6627212441549355,0.44464642593177767]",True,False,dawsTwoStep,137,785393,0.0-137.0
3,"[0,1]","[3,2]","[1,0]","[true,false,false,true]",0,2,False,"[0.75,0.743250846869154,0.7109736775916748,0.451967660790294]",False,False,dawsTwoStep,138,791030,0.0-138.0
3,"[0,1]","[1,0]","[1,0]","[false,true,false,false]",0,1,True,"[0.75,0.75,0.6988183685542084,0.492468904890297]",True,False,dawsTwoStep,139,795064,0.0-139.0
3,"[0,1]","[3,2]","[3,2]","[false,true,false,false]",0,3,False,"[0.7440354829869545,0.7251931306999053,0.715553560248295,0.49681736125808895]",False,True,dawsTwoStep,140,799395,0.0-140.0
3,"[1,0]","[2,3]","[3,2]","[false,true,true,false]",0,2,True,"[0.75,0.6850236894308938,0.704763539260582,0.5438786053589565]",False,True,dawsTwoStep,141,803402,0.0-141.0
3,"[0,1]","[1,0]","[1,0]","[true,true,true,true]",1,1,True,"[0.75,0.7150139190876389,0.7014327379613025,0.5461173536723501]",True,False,dawsTwoStep,142,807290,0.0-142.0
3,"[0,1]","[1,0]","[1,0]","[false,true,true,false]",1,1,True,"[0.75,0.7139853857540919,0.6772045793671237,0.49693834140887977]",True,False,dawsTwoStep,143,810885,0.0-143.0
3,"[0,1]","[1,0]","[2,3]","[true,true,true,false]",1,2,True,"[0.7225427360615029,0.7376924435205153,0.6645580039418086,0.5096104876417228]",True,True,dawsTwoStep,144,814591,0.0-144.0
3,"[0,1]","[3,2]","[1,0]","[true,true,true,true]",1,1,True,"[0.7296795650804244,0.738833773906885,0.6704023858440946,0.45792707480141565]",False,False,dawsTwoStep,145,818223,0.0-145.0
3,"[0,1]","[3,2]","[0,1]","[false,true,true,false]",1,1,True,"[0.75,0.7211042810790371,0.6314874090381339,0.4925632108331589]",False,False,dawsTwoStep,146,821931,0.0-146.0
3,"[1,0]","[0,1]","[3,2]","[true,true,true,false]",0,1,True,"[0.75,0.75,0.6437169035799308,0.444990431490808]",True,True,dawsTwoStep,147,825511,0.0-147.0
3,"[0,1]","[2,3]","[2,3]","[false,true,true,false]",1,2,True,"[0.7467866495580274,0.75,0.6162293597026605,0.4189014376532299]",False,True,dawsTwoStep,148,829126,0.0-148.0
3,"[1,0]","[0,1]","[3,2]","[false,true,true,false]",0,1,True,"[0.75,0.7298393768473209,0.6349772584582557,0.4030953534021039]",True,True,dawsTwoStep,149,833011,0.0-149.0
3,"[1,0]","[0,1]","[2,3]","[true,false,false,false]",0,1,False,"[0.75,0.7275858016586447,0.6404101019694756,0.42387977264943427]",True,True,dawsTwoStep,150,836429,0.0-150.0
3,"[0,1]","[0,1]","[3,2]","[true,true,true,true]",1,2,True,"[0.75,0.75,0.6522026957994764,0.43835413395414513]",True,True,dawsTwoStep,151,839632,0.0-151.0
3,"[0,1]","[1,0]","[1,0]","[true,true,true,true]",1,1,True,"[0.75,0.75,0.6433768332464261,0.4441525619749913]",True,False,dawsTwoStep,152,843101,0.0-152.0
3,"[1,0]","[0,1]","[2,3]","[true,true,true,true]",0,1,True,"[0.75,0.7414667932543496,0.6431270571105443,0.4847209701599913]",True,True,dawsTwoStep,153,846960,0.0-153.0
3,"[1,0]","[3,2]","[0,1]","[true,false,true,true]",0,2,True,"[0.703316338299469,0.7325925768481409,0.6243908034481042,0.48828650799367096]",False,False,dawsTwoStep,154,850512,0.0-154.0
3,"[1,0]","[1,0]","[2,3]","[true,true,true,false]",0,1,True,"[0.7109296132825534,0.75,0.6155628849655103,0.45241382859858864]",True,True,dawsTwoStep,155,853921,0.0-155.0
3,"[1,0]","[0,1]","[2,3]","[true,true,true,true]",0,1,True,"[0.7425192057892356,0.7177668115984692,0.590409424902551,0.42557690819435207]",True,True,dawsTwoStep,156,857464,0.0-156.0
3,"[0,1]","[1,0]","[3,2]","[true,true,true,true]",1,2,True,"[0.7428854392696609,0.7176089872766945,0.584780243008933,0.41880654212055896]",True,True,dawsTwoStep,157,861311,0.0-157.0
